timestamp_iso,trial_index,brand,target,prime_time_s,target_time_s,resp_window_s,resp_key,rt_ms_from_target
2025-12-04T06:21:23.449,0,instagram,კონტაქტი,0.16,0.16,1.5,,
2025-12-04T06:21:26.347,1,instagram,ლაიქი,0.16,0.16,1.5,right,1312.0
2025-12-04T06:21:29.261,2,instagram,სივი,0.16,0.16,1.5,,
2025-12-04T06:21:32.191,3,instagram,ლურჯი,0.16,0.16,1.5,,
2025-12-04T06:21:35.171,4,linkedin,ბალიში,0.16,0.16,1.5,,
2025-12-04T06:21:38.103,5,linkedin,ლაქტოზა,0.16,0.16,1.5,,
2025-12-04T06:21:41.032,6,linkedin,ბალიში,0.16,0.16,1.5,left,1479.57
2025-12-04T06:21:43.982,7,linkedin,სანთელი,0.16,0.16,1.5,,
2025-12-04T06:21:46.911,8,linkedin,რეკრუტერი,0.16,0.16,1.5,,
2025-12-04T06:21:49.858,9,linkedin,წიგნი,0.16,0.16,1.5,left,1174.98
2025-12-04T06:21:52.790,10,linkedin,სივი,0.16,0.16,1.5,right,863.14
2025-12-04T06:21:55.721,11,linkedin,რილსები,0.16,0.16,1.5,right,678.8
2025-12-04T06:21:58.652,12,linkedin,პოსტები,0.16,0.16,1.5,left,978.89
2025-12-04T06:22:01.583,13,linkedin,მთები,0.16,0.16,1.5,left,1193.13
2025-12-04T06:22:04.513,14,linkedin,პოსტები,0.16,0.16,1.5,right,1295.43
2025-12-04T06:22:07.444,15,instagram,კარიერა,0.16,0.16,1.5,right,1513.15
2025-12-04T06:22:10.392,16,linkedin,ლურჯი,0.16,0.16,1.5,,
2025-12-04T06:22:13.322,17,linkedin,სთორი,0.16,0.16,1.5,left,1310.81
2025-12-04T06:22:16.236,18,instagram,ეიჩარი,0.16,0.16,1.5,right,1578.52
2025-12-04T06:22:19.151,19,instagram,რეკლამა,0.16,0.16,1.5,right,1195.37
2025-12-04T06:22:22.048,20,instagram,მექსიკა,0.16,0.16,1.5,left,1261.85
2025-12-04T06:22:24.980,21,linkedin,ლაიქი,0.16,0.16,1.5,right,1363.54
2025-12-04T06:22:27.892,22,instagram,სამსახური,0.16,0.16,1.5,right,1094.8
2025-12-04T06:22:30.809,23,instagram,ინფლუენსერი,0.16,0.16,1.5,right,744.96
2025-12-04T06:22:33.738,24,linkedin,ფოტოები,0.16,0.16,1.5,right,1378.9
2025-12-04T06:22:36.636,25,instagram,დერეფანი,0.16,0.16,1.5,left,1044.94
2025-12-04T06:22:39.550,26,instagram,ფოტოები,0.16,0.16,1.5,right,1014.22
2025-12-04T06:22:42.465,27,linkedin,ლურჯი,0.16,0.16,1.5,right,1230.94
2025-12-04T06:22:45.378,28,instagram,მთები,0.16,0.16,1.5,right,1544.87
2025-12-04T06:22:48.308,29,linkedin,ნეთვორქინგი,0.16,0.16,1.5,,
2025-12-04T06:22:51.222,30,instagram,ინფლუენსერი,0.16,0.16,1.5,right,762.85
2025-12-04T06:22:54.137,31,instagram,ვიდეოები,0.16,0.16,1.5,right,748.56
2025-12-04T06:22:57.067,32,linkedin,ვიდეოები,0.16,0.16,1.5,right,1115.49
2025-12-04T06:22:59.981,33,instagram,ჩატი,0.16,0.16,1.5,right,564.19
2025-12-04T06:23:02.863,34,instagram,ლაქტოზა,0.16,0.16,1.5,left,1263.65
2025-12-04T06:23:05.761,35,instagram,კონტაქტი,0.16,0.16,1.5,right,762.79
2025-12-04T06:23:08.658,36,instagram,სთორი,0.16,0.16,1.5,right,446.9
2025-12-04T06:23:11.588,37,linkedin,რეკლამა,0.16,0.16,1.5,right,963.93
2025-12-04T06:23:14.502,38,instagram,სანთელი,0.16,0.16,1.5,left,863.54
2025-12-04T06:23:17.434,39,linkedin,სანთელი,0.16,0.16,1.5,left,648.17
2025-12-04T06:23:20.347,40,instagram,რილსები,0.16,0.16,1.5,right,631.87
2025-12-04T06:23:23.278,41,linkedin,ვიოლინო,0.16,0.16,1.5,left,961.51
2025-12-04T06:23:26.193,42,instagram,სივი,0.16,0.16,1.5,left,1180.09
2025-12-04T06:23:29.139,43,linkedin,ფანჯარა,0.16,0.16,1.5,left,1513.28
2025-12-04T06:23:32.053,44,instagram,ჩატი,0.16,0.16,1.5,right,795.87
2025-12-04T06:23:34.968,45,linkedin,მექსიკა,0.16,0.16,1.5,right,979.61
2025-12-04T06:23:37.881,46,instagram,აგური,0.16,0.16,1.5,left,1031.25
2025-12-04T06:23:40.797,47,instagram,მთები,0.16,0.16,1.5,left,1079.56
2025-12-04T06:23:43.726,48,linkedin,ვაკანსია,0.16,0.16,1.5,right,1114.66
2025-12-04T06:23:46.641,49,instagram,წიგნი,0.16,0.16,1.5,right,1379.55
2025-12-04T06:23:49.539,50,instagram,სელფი,0.16,0.16,1.5,right,746.63
2025-12-04T06:23:52.486,51,linkedin,მექსიკა,0.16,0.16,1.5,left,795.21
2025-12-04T06:23:55.383,52,instagram,რეკრუტერი,0.16,0.16,1.5,right,846.05
2025-12-04T06:23:58.314,53,linkedin,ეიჩარი,0.16,0.16,1.5,right,763.14
2025-12-04T06:24:01.228,54,instagram,პოსტები,0.16,0.16,1.5,right,613.69
2025-12-04T06:24:04.142,55,instagram,ნეთვორქინგი,0.16,0.16,1.5,right,678.39
2025-12-04T06:24:07.073,56,linkedin,წიგნი,0.16,0.16,1.5,left,1132.13
2025-12-04T06:24:09.988,57,linkedin,ვიდეოები,0.16,0.16,1.5,right,779.62
2025-12-04T06:24:12.903,58,linkedin,ჩატი,0.16,0.16,1.5,left,646.12
2025-12-04T06:24:15.815,59,instagram,რეკლამა,0.16,0.16,1.5,right,495.22
2025-12-04T06:24:25.391,60,instagram,რეკრუტერი,0.16,0.16,1.5,right,747.48
2025-12-04T06:24:28.306,61,instagram,ლაიქი,0.16,0.16,1.5,right,214.27
2025-12-04T06:24:31.219,62,instagram,ფანჯარა,0.16,0.16,1.5,right,580.58
2025-12-04T06:24:34.167,63,linkedin,დერეფანი,0.16,0.16,1.5,left,397.49
2025-12-04T06:24:37.081,64,linkedin,რეკრუტერი,0.16,0.16,1.5,right,264.76
2025-12-04T06:24:40.011,65,linkedin,კარიერა,0.16,0.16,1.5,,
2025-12-04T06:24:42.941,66,linkedin,კონტაქტი,0.16,0.16,1.5,,
2025-12-04T06:24:45.872,67,linkedin,ეიჩარი,0.16,0.16,1.5,,
2025-12-04T06:24:48.786,68,instagram,ვაკანსია,0.16,0.16,1.5,right,281.75
2025-12-04T06:24:51.685,69,instagram,პოსტები,0.16,0.16,1.5,right,1329.64
2025-12-04T06:24:54.615,70,linkedin,მეგობრები,0.16,0.16,1.5,,
2025-12-04T06:24:57.545,71,linkedin,სთორი,0.16,0.16,1.5,left,1062.73
2025-12-04T06:25:00.477,72,linkedin,ვიოლინო,0.16,0.16,1.5,left,947.01
2025-12-04T06:25:03.390,73,instagram,მექსიკა,0.16,0.16,1.5,right,1381.66
2025-12-04T06:25:06.338,74,linkedin,ფანჯარა,0.16,0.16,1.5,,
2025-12-04T06:25:09.269,75,linkedin,ფოტოები,0.16,0.16,1.5,left,1514.23
2025-12-04T06:25:12.168,76,instagram,ლურჯი,0.16,0.16,1.5,,
2025-12-04T06:25:15.080,77,instagram,მეგობრები,0.16,0.16,1.5,right,730.16
2025-12-04T06:25:17.995,78,linkedin,ინფლუენსერი,0.16,0.16,1.5,left,381.08
2025-12-04T06:25:20.908,79,instagram,ვიოლინო,0.16,0.16,1.5,right,297.06
2025-12-04T06:25:23.839,80,linkedin,დერეფანი,0.16,0.16,1.5,,
2025-12-04T06:25:26.788,81,linkedin,სამსახური,0.16,0.16,1.5,right,478.81
2025-12-04T06:25:29.717,82,linkedin,სელფი,0.16,0.16,1.5,left,780.91
2025-12-04T06:25:32.648,83,linkedin,ჩატი,0.16,0.16,1.5,right,963.12
2025-12-04T06:25:35.579,84,linkedin,სამსახური,0.16,0.16,1.5,right,280.94
2025-12-04T06:25:38.510,85,linkedin,ნეთვორქინგი,0.16,0.16,1.5,right,481.78
2025-12-04T06:25:41.423,86,instagram,ბალიში,0.16,0.16,1.5,,
2025-12-04T06:25:44.323,87,instagram,ლაქტოზა,0.16,0.16,1.5,right,232.91
2025-12-04T06:25:47.253,88,linkedin,აგური,0.16,0.16,1.5,,
2025-12-04T06:25:50.167,89,instagram,სთორი,0.16,0.16,1.5,,
2025-12-04T06:25:53.080,90,instagram,ეიჩარი,0.16,0.16,1.5,right,313.3
2025-12-04T06:25:55.996,91,linkedin,კარიერა,0.16,0.16,1.5,right,330.8
2025-12-04T06:25:58.926,92,linkedin,ვაკანსია,0.16,0.16,1.5,right,330.82
2025-12-04T06:26:01.855,93,linkedin,ლაქტოზა,0.16,0.16,1.5,left,832.58
2025-12-04T06:26:04.769,94,instagram,დერეფანი,0.16,0.16,1.5,right,413.92
2025-12-04T06:26:07.717,95,linkedin,რილსები,0.16,0.16,1.5,,
2025-12-04T06:26:10.648,96,linkedin,ინფლუენსერი,0.16,0.16,1.5,left,927.76
2025-12-04T06:26:13.578,97,linkedin,რეკლამა,0.16,0.16,1.5,right,812.52
2025-12-04T06:26:16.494,98,instagram,სელფი,0.16,0.16,1.5,right,497.03
2025-12-04T06:26:19.409,99,instagram,კარიერა,0.16,0.16,1.5,right,746.57
2025-12-04T06:26:22.306,100,instagram,ბალიში,0.16,0.16,1.5,left,863.69
2025-12-04T06:26:25.253,101,linkedin,მეგობრები,0.16,0.16,1.5,left,1213.59
2025-12-04T06:26:28.183,102,linkedin,ლაიქი,0.16,0.16,1.5,right,1146.58
2025-12-04T06:26:31.083,103,instagram,ფანჯარა,0.16,0.16,1.5,left,746.15
2025-12-04T06:26:33.995,104,instagram,წიგნი,0.16,0.16,1.5,right,780.01
2025-12-04T06:26:36.893,105,instagram,მეგობრები,0.16,0.16,1.5,right,263.92
2025-12-04T06:26:39.806,106,instagram,ვაკანსია,0.16,0.16,1.5,left,296.59
2025-12-04T06:26:42.738,107,linkedin,მთები,0.16,0.16,1.5,right,278.47
2025-12-04T06:26:45.653,108,linkedin,სივი,0.16,0.16,1.5,left,181.46
2025-12-04T06:26:48.582,109,linkedin,სელფი,0.16,0.16,1.5,right,215.46
2025-12-04T06:26:51.480,110,instagram,სანთელი,0.16,0.16,1.5,right,281.15
2025-12-04T06:26:54.411,111,linkedin,კონტაქტი,0.16,0.16,1.5,,
2025-12-04T06:26:57.325,112,instagram,სამსახური,0.16,0.16,1.5,right,397.15
2025-12-04T06:27:00.240,113,instagram,ფოტოები,0.16,0.16,1.5,left,679.09
2025-12-04T06:27:03.152,114,instagram,ვიოლინო,0.16,0.16,1.5,right,480.31
2025-12-04T06:27:06.068,115,linkedin,აგური,0.16,0.16,1.5,left,313.33
2025-12-04T06:27:08.965,116,instagram,აგური,0.16,0.16,1.5,right,267.84
2025-12-04T06:27:11.879,117,instagram,რილსები,0.16,0.16,1.5,,
2025-12-04T06:27:14.793,118,instagram,ვიდეოები,0.16,0.16,1.5,,
2025-12-04T06:27:17.708,119,instagram,ნეთვორქინგი,0.16,0.16,1.5,left,779.17
