timestamp_iso,trial_index,brand,target,prime_time_s,target_time_s,resp_window_s,resp_key,rt_ms_from_target
2025-12-04T06:04:32.581,0,instagram,სანთელი,0.16,0.16,1.5,,
2025-12-04T06:04:35.511,1,instagram,პოსტები,0.16,0.16,1.5,right,1557.67
2025-12-04T06:04:38.443,2,instagram,მექსიკა,0.16,0.16,1.5,right,1027.83
2025-12-04T06:04:41.355,3,instagram,რეკლამა,0.16,0.16,1.5,right,978.32
2025-12-04T06:04:44.287,4,instagram,ნეთვორქინგი,0.16,0.16,1.5,right,1242.09
2025-12-04T06:04:47.234,5,linkedin,რილსები,0.16,0.16,1.5,left,1213.83
2025-12-04T06:04:50.167,6,instagram,ფოტოები,0.16,0.16,1.5,right,743.56
2025-12-04T06:04:53.080,7,instagram,კონტაქტი,0.16,0.16,1.5,right,914.56
2025-12-04T06:04:55.995,8,instagram,ვიოლინო,0.16,0.16,1.5,right,1062.07
2025-12-04T06:04:58.924,9,instagram,ჩატი,0.16,0.16,1.5,right,777.23
2025-12-04T06:05:01.856,10,instagram,ლურჯი,0.16,0.16,1.5,right,927.4
2025-12-04T06:05:04.786,11,linkedin,რილსები,0.16,0.16,1.5,left,1164.0
2025-12-04T06:05:07.716,12,linkedin,კარიერა,0.16,0.16,1.5,right,832.36
2025-12-04T06:05:10.630,13,instagram,ვაკანსია,0.16,0.16,1.5,left,1213.04
2025-12-04T06:05:13.578,14,linkedin,ფანჯარა,0.16,0.16,1.5,left,1496.5
2025-12-04T06:05:16.511,15,linkedin,ეიჩარი,0.16,0.16,1.5,right,1128.42
2025-12-04T06:05:19.440,16,linkedin,მთები,0.16,0.16,1.5,left,1047.96
2025-12-04T06:05:22.338,17,instagram,ლაქტოზა,0.16,0.16,1.5,right,1395.61
2025-12-04T06:05:25.252,18,instagram,აგური,0.16,0.16,1.5,,
2025-12-04T06:05:28.182,19,linkedin,ფანჯარა,0.16,0.16,1.5,left,963.17
2025-12-04T06:05:31.113,20,linkedin,მექსიკა,0.16,0.16,1.5,left,880.43
2025-12-04T06:05:34.029,21,linkedin,მეგობრები,0.16,0.16,1.5,left,1428.76
2025-12-04T06:05:36.941,22,instagram,ფანჯარა,0.16,0.16,1.5,right,1597.32
2025-12-04T06:05:39.889,23,linkedin,სივი,0.16,0.16,1.5,right,880.81
2025-12-04T06:05:42.819,24,linkedin,სივი,0.16,0.16,1.5,right,766.18
2025-12-04T06:05:45.752,25,linkedin,სელფი,0.16,0.16,1.5,left,1078.11
2025-12-04T06:05:48.680,26,linkedin,ლაიქი,0.16,0.16,1.5,left,1414.0
2025-12-04T06:05:51.614,27,linkedin,კონტაქტი,0.16,0.16,1.5,,
2025-12-04T06:05:54.543,28,linkedin,წიგნი,0.16,0.16,1.5,,
2025-12-04T06:05:57.473,29,linkedin,ლაქტოზა,0.16,0.16,1.5,left,1464.61
2025-12-04T06:06:00.405,30,linkedin,ნეთვორქინგი,0.16,0.16,1.5,right,1261.53
2025-12-04T06:06:03.335,31,linkedin,სამსახური,0.16,0.16,1.5,right,728.43
2025-12-04T06:06:06.250,32,linkedin,რეკლამა,0.16,0.16,1.5,right,1196.94
2025-12-04T06:06:09.196,33,linkedin,ვიდეოები,0.16,0.16,1.5,left,1460.02
2025-12-04T06:06:12.127,34,linkedin,აგური,0.16,0.16,1.5,left,1146.93
2025-12-04T06:06:15.041,35,instagram,ვაკანსია,0.16,0.16,1.5,left,945.73
2025-12-04T06:06:17.954,36,instagram,ბალიში,0.16,0.16,1.5,right,1610.85
2025-12-04T06:06:20.854,37,instagram,კარიერა,0.16,0.16,1.5,,
2025-12-04T06:06:23.766,38,instagram,მექსიკა,0.16,0.16,1.5,right,931.2
2025-12-04T06:06:26.699,39,linkedin,აგური,0.16,0.16,1.5,left,896.34
2025-12-04T06:06:29.612,40,instagram,ეიჩარი,0.16,0.16,1.5,left,780.19
2025-12-04T06:06:32.559,41,linkedin,ვიოლინო,0.16,0.16,1.5,left,847.54
2025-12-04T06:06:35.475,42,linkedin,რეკრუტერი,0.16,0.16,1.5,right,814.59
2025-12-04T06:06:38.387,43,instagram,ფოტოები,0.16,0.16,1.5,right,545.72
2025-12-04T06:06:41.334,44,linkedin,სთორი,0.16,0.16,1.5,left,645.56
2025-12-04T06:06:44.233,45,instagram,კარიერა,0.16,0.16,1.5,left,914.4
2025-12-04T06:06:47.180,46,linkedin,პოსტები,0.16,0.16,1.5,left,1280.22
2025-12-04T06:06:50.111,47,linkedin,სელფი,0.16,0.16,1.5,left,748.13
2025-12-04T06:06:53.025,48,linkedin,მეგობრები,0.16,0.16,1.5,left,1112.16
2025-12-04T06:06:55.938,49,instagram,მეგობრები,0.16,0.16,1.5,right,698.26
2025-12-04T06:06:58.887,50,linkedin,ფოტოები,0.16,0.16,1.5,left,730.37
2025-12-04T06:07:01.816,51,linkedin,ვიდეოები,0.16,0.16,1.5,left,811.98
2025-12-04T06:07:04.748,52,linkedin,ლაიქი,0.16,0.16,1.5,left,711.96
2025-12-04T06:07:07.663,53,instagram,სელფი,0.16,0.16,1.5,right,731.72
2025-12-04T06:07:10.561,54,instagram,სთორი,0.16,0.16,1.5,right,597.32
2025-12-04T06:07:13.490,55,linkedin,ლაქტოზა,0.16,0.16,1.5,left,763.58
2025-12-04T06:07:16.421,56,linkedin,სამსახური,0.16,0.16,1.5,right,748.95
2025-12-04T06:07:19.335,57,instagram,ეიჩარი,0.16,0.16,1.5,left,796.29
2025-12-04T06:07:22.250,58,instagram,ფანჯარა,0.16,0.16,1.5,right,1212.93
2025-12-04T06:07:25.164,59,instagram,ლაქტოზა,0.16,0.16,1.5,left,815.3
2025-12-04T06:07:36.936,60,linkedin,ბალიში,0.16,0.16,1.5,left,731.3
2025-12-04T06:07:39.851,61,instagram,სამსახური,0.16,0.16,1.5,left,662.02
2025-12-04T06:07:42.748,62,instagram,დერეფანი,0.16,0.16,1.5,left,1131.03
2025-12-04T06:07:45.665,63,linkedin,მთები,0.16,0.16,1.5,left,744.11
2025-12-04T06:07:48.560,64,instagram,აგური,0.16,0.16,1.5,left,663.68
2025-12-04T06:07:51.491,65,linkedin,ლურჯი,0.16,0.16,1.5,right,928.36
2025-12-04T06:07:54.421,66,linkedin,დერეფანი,0.16,0.16,1.5,left,796.15
2025-12-04T06:07:57.337,67,instagram,წიგნი,0.16,0.16,1.5,right,997.91
2025-12-04T06:08:00.282,68,linkedin,ინფლუენსერი,0.16,0.16,1.5,right,914.42
2025-12-04T06:08:03.182,69,instagram,სივი,0.16,0.16,1.5,left,1012.69
2025-12-04T06:08:06.094,70,instagram,სამსახური,0.16,0.16,1.5,left,981.31
2025-12-04T06:08:09.009,71,instagram,სთორი,0.16,0.16,1.5,right,663.63
2025-12-04T06:08:11.941,72,linkedin,ბალიში,0.16,0.16,1.5,left,1279.57
2025-12-04T06:08:14.870,73,linkedin,მექსიკა,0.16,0.16,1.5,left,715.28
2025-12-04T06:08:17.784,74,instagram,რილსები,0.16,0.16,1.5,right,613.4
2025-12-04T06:08:20.715,75,linkedin,სთორი,0.16,0.16,1.5,left,713.84
2025-12-04T06:08:23.629,76,instagram,დერეფანი,0.16,0.16,1.5,left,696.25
2025-12-04T06:08:26.560,77,linkedin,პოსტები,0.16,0.16,1.5,right,679.1
2025-12-04T06:08:29.458,78,instagram,რეკრუტერი,0.16,0.16,1.5,right,862.5
2025-12-04T06:08:32.372,79,instagram,რეკრუტერი,0.16,0.16,1.5,left,882.83
2025-12-04T06:08:35.302,80,linkedin,ფოტოები,0.16,0.16,1.5,left,630.98
2025-12-04T06:08:38.216,81,instagram,ლაიქი,0.16,0.16,1.5,right,797.01
2025-12-04T06:08:41.164,82,linkedin,ეიჩარი,0.16,0.16,1.5,right,830.2
2025-12-04T06:08:44.094,83,linkedin,ინფლუენსერი,0.16,0.16,1.5,left,846.97
2025-12-04T06:08:47.026,84,linkedin,წიგნი,0.16,0.16,1.5,left,845.38
2025-12-04T06:08:49.941,85,instagram,სივი,0.16,0.16,1.5,left,1080.94
2025-12-04T06:08:52.854,86,instagram,ინფლუენსერი,0.16,0.16,1.5,right,864.04
2025-12-04T06:08:55.801,87,linkedin,ვიოლინო,0.16,0.16,1.5,left,693.83
2025-12-04T06:08:58.714,88,instagram,ნეთვორქინგი,0.16,0.16,1.5,left,1278.74
2025-12-04T06:09:01.646,89,linkedin,ჩატი,0.16,0.16,1.5,left,663.59
2025-12-04T06:09:04.560,90,instagram,ინფლუენსერი,0.16,0.16,1.5,right,944.45
2025-12-04T06:09:07.491,91,linkedin,ჩატი,0.16,0.16,1.5,left,912.16
2025-12-04T06:09:10.404,92,instagram,ბალიში,0.16,0.16,1.5,left,912.95
2025-12-04T06:09:13.319,93,instagram,რეკლამა,0.16,0.16,1.5,right,1346.98
2025-12-04T06:09:16.250,94,instagram,ვიდეოები,0.16,0.16,1.5,right,643.74
2025-12-04T06:09:19.181,95,linkedin,სანთელი,0.16,0.16,1.5,left,1129.61
2025-12-04T06:09:22.095,96,instagram,რილსები,0.16,0.16,1.5,right,896.38
2025-12-04T06:09:25.008,97,instagram,ლაიქი,0.16,0.16,1.5,right,681.01
2025-12-04T06:09:27.939,98,linkedin,ვაკანსია,0.16,0.16,1.5,right,730.24
2025-12-04T06:09:30.853,99,instagram,ლურჯი,0.16,0.16,1.5,left,727.86
2025-12-04T06:09:33.769,100,instagram,ვიდეოები,0.16,0.16,1.5,right,597.55
2025-12-04T06:09:36.682,101,instagram,კონტაქტი,0.16,0.16,1.5,right,1047.71
2025-12-04T06:09:39.598,102,linkedin,ლურჯი,0.16,0.16,1.5,right,828.81
2025-12-04T06:09:42.510,103,instagram,მეგობრები,0.16,0.16,1.5,right,848.18
2025-12-04T06:09:45.441,104,linkedin,რეკლამა,0.16,0.16,1.5,right,763.91
2025-12-04T06:09:48.355,105,instagram,პოსტები,0.16,0.16,1.5,right,679.64
2025-12-04T06:09:51.304,106,linkedin,კარიერა,0.16,0.16,1.5,right,629.21
2025-12-04T06:09:54.219,107,instagram,ვიოლინო,0.16,0.16,1.5,right,964.37
2025-12-04T06:09:57.131,108,instagram,სანთელი,0.16,0.16,1.5,right,897.02
2025-12-04T06:10:00.029,109,instagram,წიგნი,0.16,0.16,1.5,left,1381.28
2025-12-04T06:10:02.927,110,instagram,ჩატი,0.16,0.16,1.5,right,630.43
2025-12-04T06:10:05.873,111,linkedin,სანთელი,0.16,0.16,1.5,left,812.13
2025-12-04T06:10:08.772,112,instagram,სელფი,0.16,0.16,1.5,right,614.78
2025-12-04T06:10:11.701,113,linkedin,დერეფანი,0.16,0.16,1.5,left,863.77
2025-12-04T06:10:14.632,114,linkedin,კონტაქტი,0.16,0.16,1.5,right,1063.73
2025-12-04T06:10:17.563,115,linkedin,რეკრუტერი,0.16,0.16,1.5,right,713.28
2025-12-04T06:10:20.494,116,linkedin,ვაკანსია,0.16,0.16,1.5,right,679.91
2025-12-04T06:10:23.425,117,linkedin,ნეთვორქინგი,0.16,0.16,1.5,right,745.8
2025-12-04T06:10:26.323,118,instagram,მთები,0.16,0.16,1.5,right,880.25
2025-12-04T06:10:29.238,119,instagram,მთები,0.16,0.16,1.5,right,782.94
