timestamp_iso,trial_index,item_file,item_type,marker_code,rt_ms,button,correct
2025-09-07T07:31:21.989,1,item_05.jpg,irrelevant,5,408.07,left,1
2025-09-07T07:31:23.555,2,item_04.jpg,irrelevant,4,521.42,left,1
2025-09-07T07:31:25.102,3,item_01.jpg,irrelevant,1,499.80,left,1
2025-09-07T07:31:26.636,4,item_06.jpg,probe,6,490.92,left,1
2025-09-07T07:31:28.233,5,item_04.jpg,irrelevant,4,552.61,left,1
2025-09-07T07:31:29.732,6,item_02.jpg,target,2,453.45,right,1
2025-09-07T07:31:31.763,7,item_03.jpg,irrelevant,3,986.43,left,1
2025-09-07T07:31:33.429,8,item_02.jpg,target,2,620.36,right,1
2025-09-07T07:31:35.043,9,item_05.jpg,irrelevant,5,563.20,left,1
2025-09-07T07:31:36.658,10,item_03.jpg,irrelevant,3,573.13,left,1
2025-09-07T07:31:38.275,11,item_05.jpg,irrelevant,5,574.73,left,1
2025-09-07T07:31:39.788,12,item_03.jpg,irrelevant,3,467.17,left,1
2025-09-07T07:31:41.404,13,item_02.jpg,target,2,574.49,right,1
2025-09-07T07:31:42.918,14,item_02.jpg,target,2,463.83,right,1
2025-09-07T07:31:44.369,15,item_03.jpg,irrelevant,3,400.79,left,1
2025-09-07T07:31:45.835,16,item_02.jpg,target,2,421.82,right,1
2025-09-07T07:31:47.348,17,item_01.jpg,irrelevant,1,462.15,left,1
2025-09-07T07:31:48.748,18,item_06.jpg,probe,6,352.41,left,1
2025-09-07T07:31:50.330,19,item_03.jpg,irrelevant,3,531.69,left,1
2025-09-07T07:31:51.828,20,item_04.jpg,irrelevant,4,457.59,left,1
2025-09-07T07:31:53.243,21,item_06.jpg,probe,6,375.08,left,1
2025-09-07T07:31:54.643,22,item_01.jpg,irrelevant,1,352.28,left,1
2025-09-07T07:31:56.075,23,item_04.jpg,irrelevant,4,389.58,left,1
2025-09-07T07:31:57.492,24,item_05.jpg,irrelevant,5,365.59,left,1
2025-09-07T07:31:59.055,25,item_02.jpg,target,2,522.31,right,1
2025-09-07T07:32:00.487,26,item_06.jpg,probe,6,389.42,left,1
2025-09-07T07:32:02.021,27,item_02.jpg,target,2,487.01,right,1
2025-09-07T07:32:03.602,28,item_02.jpg,target,2,544.28,right,1
2025-09-07T07:32:05.100,29,item_03.jpg,irrelevant,3,456.89,left,1
2025-09-07T07:32:06.465,30,item_02.jpg,target,2,310.73,left,0
2025-09-07T07:32:07.915,31,item_06.jpg,probe,6,401.73,left,1
2025-09-07T07:32:09.363,32,item_04.jpg,irrelevant,4,405.63,left,1
2025-09-07T07:32:10.795,33,item_03.jpg,irrelevant,3,392.08,left,1
2025-09-07T07:32:12.110,34,item_01.jpg,irrelevant,1,264.76,left,1
2025-09-07T07:32:13.508,35,item_06.jpg,probe,6,355.98,left,1
2025-09-07T07:32:14.924,36,item_01.jpg,irrelevant,1,368.53,left,1
2025-09-07T07:32:16.342,37,item_06.jpg,probe,6,367.87,left,1
2025-09-07T07:32:17.823,38,item_03.jpg,irrelevant,3,435.58,left,1
2025-09-07T07:32:19.238,39,item_01.jpg,irrelevant,1,367.84,left,1
2025-09-07T07:32:20.604,40,item_01.jpg,irrelevant,1,316.00,left,1
2025-09-07T07:32:30.746,41,item_06.jpg,probe,6,416.17,left,1
2025-09-07T07:32:32.193,42,item_01.jpg,irrelevant,1,399.74,left,1
2025-09-07T07:32:33.595,43,item_01.jpg,irrelevant,1,354.06,left,1
2025-09-07T07:32:35.273,44,item_02.jpg,target,2,636.45,right,1
2025-09-07T07:32:36.921,45,item_05.jpg,irrelevant,5,598.46,left,1
2025-09-07T07:32:38.388,46,item_03.jpg,irrelevant,3,420.15,left,1
2025-09-07T07:32:39.953,47,item_06.jpg,probe,6,512.06,left,1
2025-09-07T07:32:41.419,48,item_05.jpg,irrelevant,5,419.37,left,1
2025-09-07T07:32:42.934,49,item_04.jpg,irrelevant,4,461.14,left,1
2025-09-07T07:32:44.383,50,item_06.jpg,probe,6,410.32,left,1
2025-09-07T07:32:45.947,51,item_02.jpg,target,2,517.99,right,1
2025-09-07T07:32:47.364,52,item_01.jpg,irrelevant,1,373.93,left,1
2025-09-07T07:32:48.778,53,item_03.jpg,irrelevant,3,363.50,left,1
2025-09-07T07:32:50.228,54,item_01.jpg,irrelevant,1,409.71,left,1
2025-09-07T07:32:51.593,55,item_04.jpg,irrelevant,4,314.21,left,1
2025-09-07T07:32:53.009,56,item_03.jpg,irrelevant,3,370.13,left,1
2025-09-07T07:32:54.407,57,item_05.jpg,irrelevant,5,355.70,left,1
2025-09-07T07:32:55.874,58,item_05.jpg,irrelevant,5,425.71,left,1
2025-09-07T07:32:57.304,59,item_06.jpg,probe,6,387.64,left,1
2025-09-07T07:32:58.787,60,item_01.jpg,irrelevant,1,431.08,left,1
2025-09-07T07:33:00.485,61,item_06.jpg,probe,6,660.21,left,1
2025-09-07T07:33:01.885,62,item_04.jpg,irrelevant,4,361.74,left,1
2025-09-07T07:33:03.499,63,item_03.jpg,irrelevant,3,571.37,left,1
2025-09-07T07:33:04.964,64,item_04.jpg,irrelevant,4,415.75,left,1
2025-09-07T07:33:06.429,65,item_03.jpg,irrelevant,3,420.74,left,1
2025-09-07T07:33:07.962,66,item_02.jpg,target,2,482.00,right,1
2025-09-07T07:33:09.611,67,item_03.jpg,irrelevant,3,594.37,left,1
2025-09-07T07:33:11.009,68,item_03.jpg,irrelevant,3,346.91,left,1
2025-09-07T07:33:12.409,69,item_06.jpg,probe,6,357.39,left,1
2025-09-07T07:33:13.941,70,item_04.jpg,irrelevant,4,486.72,left,1
2025-09-07T07:33:15.455,71,item_01.jpg,irrelevant,1,471.03,left,1
2025-09-07T07:33:16.988,72,item_04.jpg,irrelevant,4,494.44,left,1
2025-09-07T07:33:18.502,73,item_06.jpg,probe,6,465.33,left,1
2025-09-07T07:33:20.100,74,item_02.jpg,target,2,546.83,right,1
2025-09-07T07:33:21.666,75,item_04.jpg,irrelevant,4,517.97,left,1
2025-09-07T07:33:23.048,76,item_03.jpg,irrelevant,3,342.01,left,1
2025-09-07T07:33:24.599,77,item_06.jpg,probe,6,495.59,left,1
2025-09-07T07:33:26.146,78,item_03.jpg,irrelevant,3,510.67,left,1
2025-09-07T07:33:27.677,79,item_04.jpg,irrelevant,4,494.18,left,1
2025-09-07T07:33:29.210,80,item_04.jpg,irrelevant,4,494.42,left,1
2025-09-07T07:33:31.807,81,item_06.jpg,probe,6,519.17,left,1
2025-09-07T07:33:33.307,82,item_03.jpg,irrelevant,3,445.19,left,1
2025-09-07T07:33:34.689,83,item_01.jpg,irrelevant,1,345.43,left,1
2025-09-07T07:33:36.172,84,item_03.jpg,irrelevant,3,438.21,left,1
2025-09-07T07:33:37.652,85,item_05.jpg,irrelevant,5,437.04,left,1
2025-09-07T07:33:39.084,86,item_01.jpg,irrelevant,1,380.31,left,1
2025-09-07T07:33:40.750,87,item_02.jpg,target,2,626.62,right,1
2025-09-07T07:33:42.183,88,item_06.jpg,probe,6,393.89,left,1
2025-09-07T07:33:43.697,89,item_05.jpg,irrelevant,5,475.09,left,1
2025-09-07T07:33:45.179,90,item_04.jpg,irrelevant,4,437.89,left,1
2025-09-07T07:33:46.678,91,item_06.jpg,probe,6,461.27,left,1
2025-09-07T07:33:48.377,92,item_02.jpg,target,2,653.46,right,1
2025-09-07T07:33:50.042,93,item_03.jpg,irrelevant,3,623.94,left,1
2025-09-07T07:33:51.691,94,item_02.jpg,target,2,605.66,right,1
2025-09-07T07:33:53.638,95,item_06.jpg,probe,6,909.11,left,1
2025-09-07T07:33:55.220,96,item_02.jpg,target,2,530.13,right,1
2025-09-07T07:33:56.853,97,item_02.jpg,target,2,587.57,right,1
2025-09-07T07:33:58.435,98,item_04.jpg,irrelevant,4,531.88,left,1
2025-09-07T07:33:59.950,99,item_01.jpg,irrelevant,1,472.02,left,1
2025-09-07T07:34:01.483,100,item_05.jpg,irrelevant,5,483.34,left,1
2025-09-07T07:34:03.114,101,item_02.jpg,target,2,583.89,right,1
2025-09-07T07:34:04.628,102,item_02.jpg,target,2,464.81,right,1
2025-09-07T07:34:06.345,103,item_02.jpg,target,2,674.11,right,1
2025-09-07T07:34:07.977,104,item_04.jpg,irrelevant,4,579.83,left,1
2025-09-07T07:34:09.542,105,item_01.jpg,irrelevant,1,523.01,left,1
2025-09-07T07:34:11.158,106,item_05.jpg,irrelevant,5,571.69,left,1
2025-09-07T07:34:12.708,107,item_05.jpg,irrelevant,5,508.74,left,1
2025-09-07T07:34:14.270,108,item_04.jpg,irrelevant,4,525.48,left,1
2025-09-07T07:34:15.753,109,item_04.jpg,irrelevant,4,437.51,left,1
2025-09-07T07:34:17.353,110,item_01.jpg,irrelevant,1,552.92,left,1
2025-09-07T07:34:18.900,111,item_05.jpg,irrelevant,5,501.36,left,1
2025-09-07T07:34:20.415,112,item_04.jpg,irrelevant,4,478.06,left,1
2025-09-07T07:34:22.197,113,item_02.jpg,target,2,737.72,right,1
2025-09-07T07:34:24.145,114,item_04.jpg,irrelevant,4,912.04,left,1
2025-09-07T07:34:25.978,115,item_06.jpg,probe,6,792.29,left,1
2025-09-07T07:34:27.592,116,item_01.jpg,irrelevant,1,563.67,left,1
2025-09-07T07:34:28.974,117,item_04.jpg,irrelevant,4,339.10,left,1
2025-09-07T07:34:30.492,118,item_06.jpg,probe,6,471.94,left,1
2025-09-07T07:34:31.840,119,item_04.jpg,irrelevant,4,306.99,left,1
2025-09-07T07:34:33.255,120,item_01.jpg,irrelevant,1,377.19,left,1
2025-09-07T07:34:35.570,121,item_01.jpg,irrelevant,1,409.99,left,1
2025-09-07T07:34:36.851,122,item_01.jpg,irrelevant,1,243.40,left,1
2025-09-07T07:34:38.118,123,item_05.jpg,irrelevant,5,226.58,left,1
2025-09-07T07:34:39.432,124,item_05.jpg,irrelevant,5,265.59,left,1
2025-09-07T07:34:40.947,125,item_02.jpg,target,2,477.57,right,1
2025-09-07T07:34:42.396,126,item_02.jpg,target,2,402.70,right,1
2025-09-07T07:34:43.812,127,item_03.jpg,irrelevant,3,373.00,left,1
2025-09-07T07:34:45.179,128,item_03.jpg,irrelevant,3,321.23,left,1
2025-09-07T07:34:46.576,129,item_01.jpg,irrelevant,1,354.43,left,1
2025-09-07T07:34:48.026,130,item_03.jpg,irrelevant,3,404.26,left,1
2025-09-07T07:34:49.391,131,item_03.jpg,irrelevant,3,325.35,left,1
2025-09-07T07:34:50.807,132,item_06.jpg,probe,6,365.85,left,1
2025-09-07T07:34:52.237,133,item_04.jpg,irrelevant,4,382.38,left,1
2025-09-07T07:34:53.837,134,item_03.jpg,irrelevant,3,553.89,left,1
2025-09-07T07:34:55.353,135,item_05.jpg,irrelevant,5,474.70,left,1
2025-09-07T07:34:56.784,136,item_01.jpg,irrelevant,1,392.49,left,1
2025-09-07T07:34:58.248,137,item_05.jpg,irrelevant,5,418.08,left,1
2025-09-07T07:34:59.715,138,item_06.jpg,probe,6,416.24,left,1
2025-09-07T07:35:01.063,139,item_03.jpg,irrelevant,3,299.87,left,1
2025-09-07T07:35:02.395,140,item_02.jpg,target,2,291.48,left,0
2025-09-07T07:35:03.894,141,item_06.jpg,probe,6,456.25,left,1
2025-09-07T07:35:05.393,142,item_06.jpg,probe,6,456.20,left,1
2025-09-07T07:35:06.892,143,item_04.jpg,irrelevant,4,450.65,left,1
2025-09-07T07:35:08.390,144,item_02.jpg,target,2,448.89,right,1
2025-09-07T07:35:09.788,145,item_04.jpg,irrelevant,4,357.64,left,1
2025-09-07T07:35:11.173,146,item_04.jpg,irrelevant,4,340.77,left,1
2025-09-07T07:35:12.603,147,item_01.jpg,irrelevant,1,393.19,left,1
2025-09-07T07:35:14.185,148,item_02.jpg,target,2,528.63,right,1
2025-09-07T07:35:15.636,149,item_01.jpg,irrelevant,1,408.85,left,1
2025-09-07T07:35:17.183,150,item_02.jpg,target,2,499.47,right,1
2025-09-07T07:35:18.667,151,item_04.jpg,irrelevant,4,434.17,left,1
2025-09-07T07:35:20.163,152,item_02.jpg,target,2,461.31,right,1
2025-09-07T07:35:21.745,153,item_05.jpg,irrelevant,5,541.67,left,1
2025-09-07T07:35:23.427,154,item_03.jpg,irrelevant,3,641.74,left,1
2025-09-07T07:35:24.992,155,item_05.jpg,irrelevant,5,512.68,left,1
2025-09-07T07:35:26.558,156,item_03.jpg,irrelevant,3,513.73,left,1
2025-09-07T07:35:28.223,157,item_06.jpg,probe,6,620.86,left,1
2025-09-07T07:35:29.971,158,item_02.jpg,target,2,704.82,right,1
2025-09-07T07:35:31.738,159,item_03.jpg,irrelevant,3,721.14,left,1
2025-09-07T07:35:33.169,160,item_03.jpg,irrelevant,3,388.63,left,1
2025-09-07T07:35:35.483,161,item_06.jpg,probe,6,475.56,left,1
2025-09-07T07:35:36.884,162,item_04.jpg,irrelevant,4,353.39,left,1
2025-09-07T07:35:38.231,163,item_04.jpg,irrelevant,4,304.00,left,1
2025-09-07T07:35:39.613,164,item_06.jpg,probe,6,336.67,left,1
2025-09-07T07:35:40.996,165,item_01.jpg,irrelevant,1,345.77,left,1
2025-09-07T07:35:42.361,166,item_06.jpg,probe,6,327.22,left,1
2025-09-07T07:35:44.043,167,item_02.jpg,target,2,635.53,right,1
2025-09-07T07:35:45.557,168,item_01.jpg,irrelevant,1,464.60,left,1
2025-09-07T07:35:47.006,169,item_01.jpg,irrelevant,1,406.39,left,1
2025-09-07T07:35:48.456,170,item_01.jpg,irrelevant,1,407.54,left,1
2025-09-07T07:35:50.171,171,item_05.jpg,irrelevant,5,662.66,left,1
2025-09-07T07:35:51.737,172,item_05.jpg,irrelevant,5,519.20,left,1
2025-09-07T07:35:53.351,173,item_06.jpg,probe,6,572.22,left,1
2025-09-07T07:35:54.784,174,item_05.jpg,irrelevant,5,386.51,left,1
2025-09-07T07:35:56.349,175,item_04.jpg,irrelevant,4,516.27,left,1
2025-09-07T07:35:57.981,176,item_04.jpg,irrelevant,4,582.13,left,1
2025-09-07T07:35:59.412,177,item_01.jpg,irrelevant,1,381.53,left,1
2025-09-07T07:36:00.928,178,item_06.jpg,probe,6,472.77,left,1
2025-09-07T07:36:02.376,179,item_02.jpg,target,2,408.61,right,1
2025-09-07T07:36:03.826,180,item_04.jpg,irrelevant,4,400.73,left,1
2025-09-07T07:36:05.306,181,item_05.jpg,irrelevant,5,440.72,left,1
2025-09-07T07:36:06.807,182,item_02.jpg,target,2,454.84,right,1
2025-09-07T07:36:08.289,183,item_05.jpg,irrelevant,5,430.18,left,1
2025-09-07T07:36:09.836,184,item_04.jpg,irrelevant,4,503.94,left,1
2025-09-07T07:36:11.386,185,item_05.jpg,irrelevant,5,510.16,left,1
2025-09-07T07:36:13.050,186,item_01.jpg,irrelevant,1,613.78,left,1
2025-09-07T07:36:14.649,187,item_05.jpg,irrelevant,5,559.88,left,1
2025-09-07T07:36:16.282,188,item_02.jpg,target,2,580.41,right,1
2025-09-07T07:36:17.712,189,item_06.jpg,probe,6,382.30,left,1
2025-09-07T07:36:19.030,190,item_03.jpg,irrelevant,3,276.28,left,1
2025-09-07T07:36:20.610,191,item_02.jpg,target,2,536.04,right,1
2025-09-07T07:36:22.342,192,item_04.jpg,irrelevant,4,684.93,left,1
2025-09-07T07:36:23.807,193,item_01.jpg,irrelevant,1,421.53,left,1
2025-09-07T07:36:25.307,194,item_03.jpg,irrelevant,3,460.04,left,1
2025-09-07T07:36:26.722,195,item_01.jpg,irrelevant,1,368.36,left,1
2025-09-07T07:36:28.188,196,item_03.jpg,irrelevant,3,420.77,left,1
2025-09-07T07:36:29.702,197,item_01.jpg,irrelevant,1,472.45,left,1
2025-09-07T07:36:31.152,198,item_01.jpg,irrelevant,1,403.56,left,1
2025-09-07T07:36:32.634,199,item_05.jpg,irrelevant,5,434.05,left,1
2025-09-07T07:36:34.049,200,item_05.jpg,irrelevant,5,367.11,left,1
2025-09-07T07:36:42.726,201,item_03.jpg,irrelevant,3,441.61,left,1
2025-09-07T07:36:44.140,202,item_05.jpg,irrelevant,5,372.65,left,1
2025-09-07T07:36:45.539,203,item_06.jpg,probe,6,354.49,left,1
2025-09-07T07:36:46.987,204,item_03.jpg,irrelevant,3,399.75,left,1
2025-09-07T07:36:48.354,205,item_06.jpg,probe,6,312.66,left,1
2025-09-07T07:36:49.751,206,item_01.jpg,irrelevant,1,347.84,left,1
2025-09-07T07:36:51.167,207,item_04.jpg,irrelevant,4,370.16,left,1
2025-09-07T07:36:52.617,208,item_04.jpg,irrelevant,4,404.18,left,1
2025-09-07T07:36:54.015,209,item_06.jpg,probe,6,362.57,left,1
2025-09-07T07:36:55.396,210,item_03.jpg,irrelevant,3,334.37,left,1
2025-09-07T07:36:56.746,211,item_03.jpg,irrelevant,3,303.93,left,1
2025-09-07T07:36:58.128,212,item_06.jpg,probe,6,343.31,left,1
2025-09-07T07:36:59.527,213,item_05.jpg,irrelevant,5,361.17,left,1
2025-09-07T07:37:00.942,214,item_05.jpg,irrelevant,5,369.02,left,1
2025-09-07T07:37:02.558,215,item_02.jpg,target,2,572.46,right,1
2025-09-07T07:37:04.073,216,item_05.jpg,irrelevant,5,470.39,left,1
2025-09-07T07:37:05.471,217,item_01.jpg,irrelevant,1,354.84,left,1
2025-09-07T07:37:07.404,218,item_02.jpg,target,2,877.16,right,1
2025-09-07T07:37:09.018,219,item_06.jpg,probe,6,575.77,left,1
2025-09-07T07:37:10.467,220,item_05.jpg,irrelevant,5,394.74,left,1
2025-09-07T07:37:12.016,221,item_06.jpg,probe,6,498.38,left,1
2025-09-07T07:37:13.597,222,item_05.jpg,irrelevant,5,531.71,left,1
2025-09-07T07:37:15.080,223,item_05.jpg,irrelevant,5,432.89,left,1
2025-09-07T07:37:16.528,224,item_05.jpg,irrelevant,5,408.64,left,1
2025-09-07T07:37:17.994,225,item_04.jpg,irrelevant,4,420.05,left,1
2025-09-07T07:37:19.459,226,item_04.jpg,irrelevant,4,426.36,left,1
2025-09-07T07:37:20.925,227,item_04.jpg,irrelevant,4,425.43,left,1
2025-09-07T07:37:22.373,228,item_06.jpg,probe,6,404.08,left,1
2025-09-07T07:37:24.022,229,item_03.jpg,irrelevant,3,600.88,left,1
2025-09-07T07:37:25.753,230,item_02.jpg,target,2,679.31,right,1
2025-09-07T07:37:27.486,231,item_02.jpg,target,2,686.15,right,1
2025-09-07T07:37:29.084,232,item_03.jpg,irrelevant,3,557.70,left,1
2025-09-07T07:37:30.832,233,item_05.jpg,irrelevant,5,694.75,left,1
2025-09-07T07:37:32.697,234,item_05.jpg,irrelevant,5,818.82,left,1
2025-09-07T07:37:34.547,235,item_03.jpg,irrelevant,3,800.87,left,1
2025-09-07T07:37:36.161,236,item_05.jpg,irrelevant,5,564.68,left,1
2025-09-07T07:37:38.211,237,item_06.jpg,probe,6,,,0
2025-09-07T07:37:39.974,238,item_02.jpg,target,2,715.60,right,1
2025-09-07T07:37:41.556,239,item_01.jpg,irrelevant,1,534.63,left,1
2025-09-07T07:37:43.173,240,item_01.jpg,irrelevant,1,574.45,left,1
