timestamp_iso,trial_index,prime,target,condition,prime_time_s,isi_s,target_time_s,resp_window_s,resp_key,correct,rt_ms
2025-10-03T06:14:18.307,1,string,hook,unrelated,0.2,1.067,0.2,1.461,left,1,643.6
2025-10-03T06:14:21.023,2,shoe,sock,related,0.2,0.981,0.2,1.497,right,1,677.86
2025-10-03T06:14:23.701,3,strong,weak,related,0.2,0.952,0.2,1.478,right,1,643.57
2025-10-03T06:14:26.449,4,love,hate,related,0.2,1.033,0.2,1.464,right,1,515.66
2025-10-03T06:14:29.264,5,scratch,itch,related,0.2,0.998,0.2,1.594,,0,
2025-10-03T06:14:32.028,6,chain,warm,unrelated,0.2,1.069,0.2,1.446,left,1,944.43
2025-10-03T06:14:34.791,7,angry,mad,related,0.2,1.045,0.2,1.493,right,1,645.11
2025-10-03T06:14:37.490,8,brick,aunt,unrelated,0.2,1.051,0.2,1.405,left,1,845.24
2025-10-03T06:14:40.187,9,cup,guitar,unrelated,0.2,0.917,0.2,1.532,left,1,1080.5
2025-10-03T06:14:42.869,10,pea,bean,related,0.2,1.0,0.2,1.444,left,0,930.81
2025-10-03T06:14:45.615,11,fork,smell,unrelated,0.2,0.958,0.2,1.559,left,1,696.55
2025-10-03T06:14:48.449,12,broom,new,unrelated,0.2,1.036,0.2,1.561,left,1,748.07
2025-10-03T06:14:51.077,13,bridge,man,unrelated,0.2,0.919,0.2,1.472,,0,
2025-10-03T06:14:53.925,14,plate,thin,unrelated,0.2,1.066,0.2,1.555,left,1,662.82
2025-10-03T06:14:56.756,15,piano,clean,unrelated,0.2,1.0,0.2,1.591,left,1,647.53
2025-10-03T06:14:59.438,16,night,day,related,0.2,0.916,0.2,1.545,right,1,714.5
2025-10-03T06:15:02.253,17,lamp,cart,unrelated,0.2,1.007,0.2,1.564,left,1,765.08
2025-10-03T06:15:05.116,18,live,die,related,0.2,1.059,0.2,1.579,right,1,679.62
2025-10-03T06:15:07.913,19,planet,well,unrelated,0.2,1.031,0.2,1.533,left,1,813.94
2025-10-03T06:15:10.577,20,flame,fire,related,0.2,0.917,0.2,1.504,right,1,662.87
2025-10-03T06:15:13.275,21,brush,speech,unrelated,0.2,0.94,0.2,1.525,left,1,894.66
2025-10-03T06:15:16.057,22,insect,bug,related,0.2,0.941,0.2,1.598,left,0,796.74
2025-10-03T06:15:18.737,23,cloud,wine,unrelated,0.2,0.949,0.2,1.502,left,1,830.82
2025-10-03T06:15:21.335,24,leaf,house,unrelated,0.2,0.921,0.2,1.435,left,1,796.41
2025-10-03T06:15:23.983,25,ice,snow,related,0.2,0.937,0.2,1.471,right,1,646.04
2025-10-03T06:15:26.880,26,lamp,sink,unrelated,0.2,1.078,0.2,1.581,left,1,681.5
2025-10-03T06:15:29.628,27,up,down,related,0.2,1.075,0.2,1.443,right,1,514.25
2025-10-03T06:15:32.343,28,lamp,mean,unrelated,0.2,1.024,0.2,1.459,left,1,765.3
2025-10-03T06:15:35.056,29,root,tree,related,0.2,0.904,0.2,1.564,right,1,880.56
2025-10-03T06:15:37.705,30,brick,pans,unrelated,0.2,0.978,0.2,1.435,left,1,1049.57
2025-10-03T06:15:40.484,31,cloud,cut,unrelated,0.2,1.0,0.2,1.531,left,1,881.55
2025-10-03T06:15:43.300,32,stone,wise,unrelated,0.2,1.056,0.2,1.522,left,1,831.55
2025-10-03T06:15:45.897,33,yes,no,related,0.2,0.9,0.2,1.452,right,1,445.6
2025-10-03T06:15:48.661,34,fork,beef,unrelated,0.2,1.064,0.2,1.475,left,1,946.41
2025-10-03T06:15:51.541,35,cup,mug,related,0.2,1.087,0.2,1.549,right,1,831.45
2025-10-03T06:15:54.156,36,lost,win,related,0.2,0.913,0.2,1.466,right,1,832.01
2025-10-03T06:15:56.905,37,fork,stop,unrelated,0.2,0.937,0.2,1.574,left,1,762.97
2025-10-03T06:15:59.619,38,candle,pass,unrelated,0.2,1.002,0.2,1.472,left,1,978.23
2025-10-03T06:16:02.365,39,bell,cry,unrelated,0.2,0.923,0.2,1.584,right,0,664.31
2025-10-03T06:16:04.930,40,coin,dream,unrelated,0.2,0.923,0.2,1.408,right,0,732.16
2025-10-03T06:16:07.578,41,pig,pig,related,0.2,0.932,0.2,1.487,right,1,645.02
2025-10-03T06:16:10.342,42,brick,young,unrelated,0.2,1.082,0.2,1.457,left,1,728.72
2025-10-03T06:16:12.939,43,wall,star,unrelated,0.2,0.944,0.2,1.418,left,1,747.19
2025-10-03T06:16:15.704,44,stone,head,unrelated,0.2,1.019,0.2,1.501,left,1,895.82
2025-10-03T06:16:18.484,45,eat,drink,related,0.2,1.058,0.2,1.488,left,0,713.19
2025-10-03T06:16:21.099,46,cup,tall,unrelated,0.2,0.905,0.2,1.471,left,1,730.14
2025-10-03T06:16:23.765,47,string,sheep,unrelated,0.2,1.031,0.2,1.408,left,1,862.76
2025-10-03T06:16:26.478,48,pencil,year,unrelated,0.2,1.023,0.2,1.451,right,0,646.56
2025-10-03T06:16:29.292,49,spice,herb,related,0.2,1.055,0.2,1.524,left,0,713.95
2025-10-03T06:16:32.158,50,soap,wash,related,0.2,1.059,0.2,1.578,right,1,881.27
2025-10-03T06:16:35.037,51,paper,foot,unrelated,0.2,1.074,0.2,1.563,left,1,1048.68
2025-10-03T06:16:37.802,52,black,night,related,0.2,0.984,0.2,1.531,left,0,947.49
2025-10-03T06:16:40.648,53,cloud,sky,related,0.2,1.021,0.2,1.589,right,1,913.8
2025-10-03T06:16:43.464,54,time,clock,related,0.2,1.029,0.2,1.555,right,1,848.19
2025-10-03T06:16:46.145,55,plate,rock,unrelated,0.2,1.012,0.2,1.444,left,1,1029.78
2025-10-03T06:16:48.958,56,candle,mold,unrelated,0.2,0.974,0.2,1.586,right,0,914.28
2025-10-03T06:16:51.756,57,cup,stand,unrelated,0.2,0.992,0.2,1.566,,0,
2025-10-03T06:16:54.386,58,bowl,short,unrelated,0.2,0.983,0.2,1.412,left,1,1181.36
2025-10-03T06:16:57.217,59,coffee,tea,related,0.2,1.084,0.2,1.505,right,1,446.81
2025-10-03T06:16:59.949,60,table,sour,unrelated,0.2,1.038,0.2,1.451,left,1,980.29
2025-10-03T06:17:02.680,61,cup,end,unrelated,0.2,1.028,0.2,1.478,left,1,863.87
2025-10-03T06:17:05.377,62,car,car,related,0.2,1.052,0.2,1.41,right,1,713.27
2025-10-03T06:17:08.091,63,fan,small,unrelated,0.2,0.932,0.2,1.559,left,1,1413.26
2025-10-03T06:17:10.706,64,clock,shoe,unrelated,0.2,0.92,0.2,1.455,left,1,1279.85
2025-10-03T06:17:13.403,65,glove,glove,related,0.2,0.996,0.2,1.47,right,1,829.49
2025-10-03T06:17:16.135,66,fan,leap,unrelated,0.2,0.952,0.2,1.533,,0,
2025-10-03T06:17:18.949,67,page,book,related,0.2,0.996,0.2,1.589,,0,
2025-10-03T06:17:21.596,68,cloud,wide,unrelated,0.2,0.976,0.2,1.442,,0,
2025-10-03T06:17:24.327,69,jog,run,related,0.2,1.032,0.2,1.454,,0,
2025-10-03T06:17:27.075,70,ladder,cat,unrelated,0.2,0.935,0.2,1.564,,0,
2025-10-03T06:17:29.673,71,alive,dead,related,0.2,0.937,0.2,1.423,right,1,696.81
2025-10-03T06:17:32.437,72,pen,paper,related,0.2,0.969,0.2,1.554,,0,
2025-10-03T06:17:35.151,73,lamp,less,unrelated,0.2,0.932,0.2,1.552,,0,
2025-10-03T06:17:37.816,74,stone,leg,unrelated,0.2,0.913,0.2,1.521,left,1,897.12
2025-10-03T06:17:40.513,75,full,empty,related,0.2,0.93,0.2,1.533,right,1,797.62
2025-10-03T06:17:43.295,76,shovel,spade,related,0.2,0.96,0.2,1.583,right,1,796.11
2025-10-03T06:17:45.975,77,curtain,cover,related,0.2,0.949,0.2,1.494,right,1,1112.76
2025-10-03T06:17:48.656,78,coin,peace,unrelated,0.2,0.959,0.2,1.481,left,1,1080.4
2025-10-03T06:17:51.287,79,string,pond,unrelated,0.2,0.934,0.2,1.449,right,0,1196.97
2025-10-03T06:17:54.034,80,chain,freeze,unrelated,0.2,0.937,0.2,1.56,right,0,792.73
2025-10-03T06:17:56.699,81,mom,dad,related,0.2,0.906,0.2,1.523,right,1,397.6
2025-10-03T06:17:59.446,82,stove,cook,related,0.2,0.979,0.2,1.539,right,1,730.1
2025-10-03T06:18:02.128,83,fresh,stale,related,0.2,0.988,0.2,1.454,,0,
2025-10-03T06:18:04.991,84,plate,dance,unrelated,0.2,1.062,0.2,1.566,left,1,1131.0
2025-10-03T06:18:07.706,85,rich,wealthy,related,0.2,1.029,0.2,1.451,,0,
2025-10-03T06:18:10.453,86,step,stair,related,0.2,1.087,0.2,1.423,right,1,713.57
2025-10-03T06:18:13.102,87,hop,skip,related,0.2,0.907,0.2,1.508,right,1,698.09
2025-10-03T06:18:15.799,88,friend,enemy,related,0.2,0.916,0.2,1.542,right,1,713.67
2025-10-03T06:18:18.596,89,lamp,mountain,unrelated,0.2,1.024,0.2,1.543,left,1,1113.25
2025-10-03T06:18:21.311,90,stone,mouth,unrelated,0.2,0.905,0.2,1.566,left,1,845.62
2025-10-03T06:18:24.008,91,bowl,slow,unrelated,0.2,0.916,0.2,1.536,left,1,1262.92
2025-10-03T06:18:26.673,92,mud,dirt,related,0.2,1.005,0.2,1.421,right,1,731.66
2025-10-03T06:18:29.453,93,sand,desert,related,0.2,1.008,0.2,1.531,right,1,912.47
2025-10-03T06:18:32.334,94,open,shut,related,0.2,1.075,0.2,1.569,right,1,863.66
2025-10-03T06:18:35.000,95,salt,water,related,0.2,0.94,0.2,1.496,right,1,763.46
2025-10-03T06:18:37.663,96,table,cold,unrelated,0.2,0.918,0.2,1.512,left,1,763.3
2025-10-03T06:18:40.360,97,leaf,nail,unrelated,0.2,1.055,0.2,1.406,left,1,1065.01
2025-10-03T06:18:43.092,98,coin,smile,unrelated,0.2,0.94,0.2,1.555,left,1,980.35
2025-10-03T06:18:45.807,99,true,lie,related,0.2,1.07,0.2,1.412,right,1,498.17
2025-10-03T06:18:48.472,100,bread,boat,unrelated,0.2,0.946,0.2,1.49,left,1,747.23
2025-10-03T06:18:51.251,101,wet,dry,related,0.2,0.972,0.2,1.574,right,1,447.83
2025-10-03T06:18:53.998,102,near,far,related,0.2,0.964,0.2,1.551,left,0,880.2
2025-10-03T06:18:56.663,103,candle,him,unrelated,0.2,0.95,0.2,1.464,left,1,694.32
2025-10-03T06:18:59.461,104,brush,crown,unrelated,0.2,1.004,0.2,1.56,left,1,1197.72
2025-10-03T06:19:02.126,105,roof,bad,unrelated,0.2,0.942,0.2,1.483,left,1,1164.72
2025-10-03T06:19:04.789,106,rug,shallow,unrelated,0.2,1.002,0.2,1.425,left,1,744.37
2025-10-03T06:19:07.370,107,hide,seek,related,0.2,0.938,0.2,1.405,right,1,681.1
2025-10-03T06:19:10.067,108,stone,sheet,unrelated,0.2,0.958,0.2,1.499,left,1,997.45
2025-10-03T06:19:12.849,109,clock,eggs,unrelated,0.2,1.019,0.2,1.525,left,1,981.79
2025-10-03T06:19:15.647,110,up,high,related,0.2,1.079,0.2,1.49,right,1,597.76
2025-10-03T06:19:18.328,111,fence,bright,unrelated,0.2,0.978,0.2,1.464,left,1,1080.95
2025-10-03T06:19:21.177,112,coin,write,unrelated,0.2,1.021,0.2,1.588,left,1,929.73
2025-10-03T06:19:23.939,113,stone,feet,unrelated,0.2,0.951,0.2,1.578,left,1,1146.7
2025-10-03T06:19:26.588,114,horn,galaxy,unrelated,0.2,0.983,0.2,1.41,left,1,688.85
2025-10-03T06:19:29.301,115,fence,few,unrelated,0.2,0.943,0.2,1.543,left,1,647.71
2025-10-03T06:19:31.983,116,bridge,rain,unrelated,0.2,0.963,0.2,1.484,left,1,997.63
2025-10-03T06:19:34.847,117,bread,butter,related,0.2,1.079,0.2,1.56,right,1,463.13
2025-10-03T06:19:37.478,118,ink,pen,related,0.2,0.971,0.2,1.413,left,0,812.05
2025-10-03T06:19:40.060,119,stone,hell,unrelated,0.2,0.901,0.2,1.431,left,1,780.18
2025-10-03T06:19:42.825,120,kill,kill,related,0.2,0.964,0.2,1.574,right,1,747.45
2025-10-03T06:19:45.720,121,arm,leg,related,0.2,1.076,0.2,1.584,right,1,814.53
2025-10-03T06:19:48.518,122,bread,eggs,related,0.2,0.97,0.2,1.592,right,1,812.13
2025-10-03T06:19:51.399,123,coat,bug,unrelated,0.2,1.082,0.2,1.574,left,1,847.26
2025-10-03T06:19:54.095,124,roof,high,unrelated,0.2,0.979,0.2,1.483,right,0,949.76
2025-10-03T06:19:56.844,125,stick,dead,unrelated,0.2,1.071,0.2,1.437,left,1,1114.67
2025-10-03T06:19:59.608,126,king,crown,related,0.2,1.073,0.2,1.456,left,0,811.93
2025-10-03T06:20:02.406,127,woman,man,related,0.2,1.073,0.2,1.485,right,1,948.83
2025-10-03T06:20:05.070,128,clock,far,unrelated,0.2,1.011,0.2,1.423,left,1,1049.04
2025-10-03T06:20:07.901,129,bird,spade,unrelated,0.2,1.078,0.2,1.512,right,0,796.12
2025-10-03T06:20:10.599,130,old,young,related,0.2,1.028,0.2,1.435,right,1,660.42
2025-10-03T06:20:13.414,131,stone,win,unrelated,0.2,1.064,0.2,1.523,left,1,861.92
2025-10-03T06:20:16.145,132,many,few,related,0.2,1.09,0.2,1.4,right,1,1012.16
2025-10-03T06:20:18.926,133,fat,thin,related,0.2,1.005,0.2,1.529,right,1,712.64
2025-10-03T06:20:21.690,134,jump,leap,related,0.2,1.055,0.2,1.479,left,0,796.35
2025-10-03T06:20:24.286,135,floor,mad,unrelated,0.2,0.915,0.2,1.44,left,1,898.08
2025-10-03T06:20:27.067,136,moon,star,related,0.2,1.071,0.2,1.464,right,1,1380.12
2025-10-03T06:20:29.933,137,narrow,wide,related,0.2,1.054,0.2,1.578,right,1,929.88
2025-10-03T06:20:32.714,138,knife,cut,related,0.2,1.066,0.2,1.481,right,1,1045.18
2025-10-03T06:20:35.443,139,candle,pig,unrelated,0.2,0.919,0.2,1.567,left,1,1047.1
2025-10-03T06:20:38.173,140,hard,rock,related,0.2,0.98,0.2,1.514,right,1,1077.84
2025-10-03T06:20:40.873,141,big,small,related,0.2,0.952,0.2,1.508,right,1,863.51
2025-10-03T06:20:43.604,142,cold,freeze,related,0.2,0.964,0.2,1.541,right,1,1146.54
2025-10-03T06:20:46.418,143,lamp,wealthy,unrelated,0.2,1.044,0.2,1.535,left,1,1094.05
2025-10-03T06:20:49.147,144,sad,cry,related,0.2,1.041,0.2,1.461,right,1,816.41
2025-10-03T06:20:51.879,145,cup,water,unrelated,0.2,1.015,0.2,1.489,right,0,781.06
2025-10-03T06:20:54.727,146,smart,wise,related,0.2,1.049,0.2,1.565,right,1,693.92
2025-10-03T06:20:57.474,147,clock,fire,unrelated,0.2,0.928,0.2,1.585,left,1,1077.38
2025-10-03T06:21:00.124,148,bone,stale,unrelated,0.2,0.905,0.2,1.509,left,1,1078.88
2025-10-03T06:21:02.786,149,cup,cover,unrelated,0.2,1.027,0.2,1.406,left,1,965.28
2025-10-03T06:21:05.584,150,horn,dry,unrelated,0.2,1.003,0.2,1.557,left,1,980.45
2025-10-03T06:21:08.348,151,month,year,related,0.2,0.98,0.2,1.561,right,1,563.24
2025-10-03T06:21:10.929,152,plate,itch,unrelated,0.2,0.918,0.2,1.427,left,1,696.58
2025-10-03T06:21:13.728,153,kind,mean,related,0.2,1.089,0.2,1.468,right,1,715.16
2025-10-03T06:21:16.575,154,frown,smile,related,0.2,1.06,0.2,1.55,right,1,513.32
2025-10-03T06:21:19.288,155,long,short,related,0.2,1.0,0.2,1.492,right,1,679.26
2025-10-03T06:21:22.020,156,hat,head,related,0.2,1.079,0.2,1.429,right,1,680.01
2025-10-03T06:21:24.650,157,cup,bean,unrelated,0.2,0.928,0.2,1.472,left,1,881.98
2025-10-03T06:21:27.498,158,candle,down,unrelated,0.2,1.057,0.2,1.558,left,1,930.22
2025-10-03T06:21:30.229,159,fan,enemy,unrelated,0.2,0.934,0.2,1.551,left,1,895.84
2025-10-03T06:21:32.861,160,meat,beef,related,0.2,0.921,0.2,1.473,right,1,648.12
2025-10-03T06:21:35.607,161,sweet,sour,related,0.2,1.089,0.2,1.428,right,1,812.91
2025-10-03T06:21:38.454,162,dim,bright,related,0.2,1.055,0.2,1.554,right,1,549.87
2025-10-03T06:21:41.219,163,lamp,dad,unrelated,0.2,0.95,0.2,1.573,left,1,862.92
2025-10-03T06:21:44.018,164,star,galaxy,related,0.2,1.068,0.2,1.484,right,1,779.82
2025-10-03T06:21:46.916,165,sleep,dream,related,0.2,1.078,0.2,1.581,right,1,682.12
2025-10-03T06:21:49.678,166,hands,feet,related,0.2,0.987,0.2,1.538,right,1,749.78
2025-10-03T06:21:52.510,167,more,less,related,0.2,1.096,0.2,1.507,right,1,564.0
2025-10-03T06:21:55.240,168,clock,desert,unrelated,0.2,0.964,0.2,1.545,left,1,1029.87
2025-10-03T06:21:57.971,169,cloud,die,unrelated,0.2,1.051,0.2,1.444,left,1,781.15
2025-10-03T06:22:00.602,170,her,him,related,0.2,0.986,0.2,1.411,right,1,578.98
2025-10-03T06:22:03.335,171,mold,mold,related,0.2,1.064,0.2,1.437,right,1,713.05
2025-10-03T06:22:06.048,172,chain,hate,unrelated,0.2,0.941,0.2,1.545,left,1,998.21
2025-10-03T06:22:08.778,173,deep,shallow,related,0.2,1.072,0.2,1.421,right,1,846.59
2025-10-03T06:22:11.461,174,heaven,hell,related,0.2,0.945,0.2,1.508,right,1,746.46
2025-10-03T06:22:14.090,175,cart,cart,related,0.2,0.968,0.2,1.426,right,1,928.28
2025-10-03T06:22:16.705,176,horn,empty,unrelated,0.2,0.945,0.2,1.443,left,1,1047.43
2025-10-03T06:22:19.369,177,read,write,related,0.2,0.968,0.2,1.456,right,1,930.85
2025-10-03T06:22:22.102,178,snow,rain,related,0.2,0.902,0.2,1.588,right,1,448.5
2025-10-03T06:22:24.798,179,fail,pass,related,0.2,0.95,0.2,1.499,left,0,915.75
2025-10-03T06:22:27.564,180,fish,hook,related,0.2,1.037,0.2,1.497,right,1,848.85
2025-10-03T06:22:30.376,181,cloud,butter,unrelated,0.2,1.027,0.2,1.553,left,1,913.07
2025-10-03T06:22:33.074,182,beer,wine,related,0.2,0.923,0.2,1.543,right,1,796.48
2025-10-03T06:22:35.788,183,bridge,tree,unrelated,0.2,0.941,0.2,1.542,left,1,898.56
2025-10-03T06:22:38.453,184,lake,pond,related,0.2,0.974,0.2,1.451,right,1,779.53
2025-10-03T06:22:41.051,185,string,guitar,related,0.2,0.921,0.2,1.442,right,1,1045.65
2025-10-03T06:22:43.649,186,cloud,drink,unrelated,0.2,0.92,0.2,1.431,left,1,1061.11
2025-10-03T06:22:46.412,187,home,house,related,0.2,1.058,0.2,1.469,right,1,615.68
2025-10-03T06:22:49.076,188,ship,boat,related,0.2,0.924,0.2,1.5,right,1,631.87
2025-10-03T06:22:51.891,189,leaf,clock,unrelated,0.2,1.025,0.2,1.553,left,1,647.47
2025-10-03T06:22:54.555,190,sick,well,related,0.2,0.988,0.2,1.446,right,1,731.26
2025-10-03T06:22:57.419,191,sit,stand,related,0.2,1.074,0.2,1.562,right,1,696.81
2025-10-03T06:23:00.216,192,brush,paper,unrelated,0.2,1.006,0.2,1.546,left,1,895.97
2025-10-03T06:23:02.780,193,brush,no,unrelated,0.2,0.932,0.2,1.403,left,1,846.48
2025-10-03T06:23:05.463,194,sing,dance,related,0.2,0.946,0.2,1.501,right,1,812.57
2025-10-03T06:23:08.210,195,begin,end,related,0.2,0.994,0.2,1.524,right,1,597.07
2025-10-03T06:23:11.074,196,pencil,night,unrelated,0.2,1.094,0.2,1.541,left,1,781.75
2025-10-03T06:23:13.957,197,dirty,clean,related,0.2,1.094,0.2,1.562,right,1,713.86
2025-10-03T06:23:16.637,198,rug,book,unrelated,0.2,1.015,0.2,1.441,left,1,1247.06
2025-10-03T06:23:19.286,199,fan,dirt,unrelated,0.2,0.985,0.2,1.424,left,1,895.27
2025-10-03T06:23:21.915,200,bell,wash,unrelated,0.2,0.987,0.2,1.412,left,1,913.04
2025-10-03T06:23:24.797,201,roof,kill,unrelated,0.2,1.056,0.2,1.594,left,1,830.37
2025-10-03T06:23:27.610,202,bridge,tea,unrelated,0.2,1.062,0.2,1.518,right,0,763.46
2025-10-03T06:23:30.257,203,chain,shut,unrelated,0.2,0.936,0.2,1.467,left,1,644.89
2025-10-03T06:23:32.887,204,start,stop,related,0.2,0.92,0.2,1.477,right,1,1015.58
2025-10-03T06:23:35.686,205,float,sink,related,0.2,1.081,0.2,1.481,right,1,927.79
2025-10-03T06:23:38.400,206,pots,pans,related,0.2,1.046,0.2,1.431,left,0,728.84
2025-10-03T06:23:41.067,207,kitten,cat,related,0.2,1.017,0.2,1.402,right,1,397.83
2025-10-03T06:23:43.697,208,ladder,snow,unrelated,0.2,0.952,0.2,1.437,left,1,698.49
2025-10-03T06:23:46.344,209,brush,stair,unrelated,0.2,0.972,0.2,1.434,left,1,764.78
2025-10-03T06:23:49.107,210,hot,warm,related,0.2,0.934,0.2,1.584,right,1,662.7
2025-10-03T06:23:51.922,211,foot,shoe,related,0.2,1.067,0.2,1.511,right,1,680.24
2025-10-03T06:23:54.688,212,taste,smell,related,0.2,1.095,0.2,1.442,right,1,697.86
2025-10-03T06:23:57.318,213,war,peace,related,0.2,0.973,0.2,1.423,right,1,663.76
2025-10-03T06:24:00.082,214,table,pen,unrelated,0.2,0.942,0.2,1.579,right,0,814.39
2025-10-03T06:24:02.696,215,blanket,sheet,related,0.2,0.924,0.2,1.455,right,1,596.38
2025-10-03T06:24:05.328,216,clock,seek,unrelated,0.2,0.915,0.2,1.492,left,1,747.42
2025-10-03T06:24:08.108,217,brush,cook,unrelated,0.2,1.026,0.2,1.525,left,1,1078.39
2025-10-03T06:24:10.889,218,stone,glove,unrelated,0.2,1.034,0.2,1.507,left,1,678.45
2025-10-03T06:24:13.536,219,uncle,aunt,related,0.2,1.007,0.2,1.409,right,1,764.79
2025-10-03T06:24:16.367,220,coat,lie,unrelated,0.2,1.035,0.2,1.549,left,1,663.57
2025-10-03T06:24:18.965,221,pencil,sky,unrelated,0.2,0.945,0.2,1.418,left,1,729.7
2025-10-03T06:24:21.712,222,brush,weak,unrelated,0.2,0.99,0.2,1.524,left,1,897.05
2025-10-03T06:24:24.428,223,fast,slow,related,0.2,1.002,0.2,1.475,left,0,679.7
2025-10-03T06:24:27.026,224,hammer,nail,related,0.2,0.908,0.2,1.448,left,0,1212.81
2025-10-03T06:24:29.722,225,old,new,related,0.2,0.951,0.2,1.502,right,1,714.36
2025-10-03T06:24:32.354,226,fence,herb,unrelated,0.2,0.957,0.2,1.432,left,1,782.19
2025-10-03T06:24:35.185,227,stone,day,unrelated,0.2,1.063,0.2,1.535,,0,
2025-10-03T06:24:37.749,228,ice,cold,related,0.2,0.909,0.2,1.42,left,0,795.82
2025-10-03T06:24:40.498,229,bread,run,unrelated,0.2,1.043,0.2,1.475,left,1,1028.86
2025-10-03T06:24:43.243,230,high,tall,related,0.2,0.963,0.2,1.555,right,1,647.43
2025-10-03T06:24:45.891,231,word,speech,related,0.2,0.924,0.2,1.49,right,1,1448.36
2025-10-03T06:24:48.573,232,lip,mouth,related,0.2,0.901,0.2,1.535,right,1,430.2
2025-10-03T06:24:51.270,233,string,car,unrelated,0.2,0.981,0.2,1.495,left,1,565.37
2025-10-03T06:24:54.051,234,sheep,sheep,related,0.2,1.014,0.2,1.54,right,1,713.57
2025-10-03T06:24:56.881,235,inch,foot,related,0.2,1.026,0.2,1.575,left,0,730.76
2025-10-03T06:24:59.663,236,hill,mountain,related,0.2,1.008,0.2,1.53,right,1,698.54
2025-10-03T06:25:02.526,237,fork,sock,unrelated,0.2,1.07,0.2,1.551,left,1,679.67
2025-10-03T06:25:05.275,238,stone,mug,unrelated,0.2,1.084,0.2,1.426,left,1,579.09
2025-10-03T06:25:08.071,239,wall,skip,unrelated,0.2,1.093,0.2,1.477,left,1,666.09
2025-10-03T06:25:10.869,240,good,bad,related,0.2,0.992,0.2,1.576,right,1,597.24
