timestamp_iso,trial_index,brand,brand_path,target,prime_time_s,isi_s,target_time_s,cooldown_s,resp_window_s,resp_key,rt_ms_from_target,rt_ms_from_window_open
2025-10-31T08:50:04.604,0,facebook,C:\Users\Nadira\Documents\Experiments\visual-evoked-potentials\psychopy_experiments\media/logos/facebook.png,გართობა,0.16,0.7,0.16,0.0,1.0,right,791.63,791.63
2025-10-31T08:50:06.835,1,youtube,C:\Users\Nadira\Documents\Experiments\visual-evoked-potentials\psychopy_experiments\media/logos/youtube.png,ჯგუფი,0.16,0.7,0.16,0.0,1.0,left,885.34,885.34
2025-10-31T08:50:09.050,2,youtube,C:\Users\Nadira\Documents\Experiments\visual-evoked-potentials\psychopy_experiments\media/logos/youtube.png,ავთენტურობა,0.16,0.7,0.16,0.0,1.0,,,
2025-10-31T08:50:11.264,3,youtube,C:\Users\Nadira\Documents\Experiments\visual-evoked-potentials\psychopy_experiments\media/logos/youtube.png,კომენტარები,0.16,0.7,0.16,0.0,1.0,right,908.67,908.67
2025-10-31T08:50:13.463,4,youtube,C:\Users\Nadira\Documents\Experiments\visual-evoked-potentials\psychopy_experiments\media/logos/youtube.png,დრო,0.16,0.7,0.16,0.0,1.0,right,759.71,759.71
2025-10-31T08:50:15.677,5,facebook,C:\Users\Nadira\Documents\Experiments\visual-evoked-potentials\psychopy_experiments\media/logos/facebook.png,ვიდეო,0.16,0.7,0.16,0.0,1.0,,,
2025-10-31T08:50:17.876,6,youtube,C:\Users\Nadira\Documents\Experiments\visual-evoked-potentials\psychopy_experiments\media/logos/youtube.png,აგური,0.16,0.7,0.16,0.0,1.0,left,711.98,711.98
2025-10-31T08:50:20.090,7,facebook,C:\Users\Nadira\Documents\Experiments\visual-evoked-potentials\psychopy_experiments\media/logos/facebook.png,კომენტარები,0.16,0.7,0.16,0.0,1.0,right,765.14,765.14
2025-10-31T08:50:22.306,8,facebook,C:\Users\Nadira\Documents\Experiments\visual-evoked-potentials\psychopy_experiments\media/logos/facebook.png,კონტენტი,0.16,0.7,0.16,0.0,1.0,right,914.15,914.15
2025-10-31T08:50:24.537,9,youtube,C:\Users\Nadira\Documents\Experiments\visual-evoked-potentials\psychopy_experiments\media/logos/youtube.png,პეპელა,0.16,0.7,0.16,0.0,1.0,left,655.14,655.14
2025-10-31T08:50:26.750,10,youtube,C:\Users\Nadira\Documents\Experiments\visual-evoked-potentials\psychopy_experiments\media/logos/youtube.png,ავთენტურობა,0.16,0.7,0.16,0.0,1.0,,,
2025-10-31T08:50:28.967,11,facebook,C:\Users\Nadira\Documents\Experiments\visual-evoked-potentials\psychopy_experiments\media/logos/facebook.png,ჩელენჯი,0.16,0.7,0.16,0.0,1.0,left,992.86,992.86
2025-10-31T08:50:31.164,12,facebook,C:\Users\Nadira\Documents\Experiments\visual-evoked-potentials\psychopy_experiments\media/logos/facebook.png,სტრიმი,0.16,0.7,0.16,0.0,1.0,right,757.88,757.88
2025-10-31T08:50:33.379,13,youtube,C:\Users\Nadira\Documents\Experiments\visual-evoked-potentials\psychopy_experiments\media/logos/youtube.png,რეაქცია,0.16,0.7,0.16,0.0,1.0,,,
2025-10-31T08:50:35.578,14,facebook,C:\Users\Nadira\Documents\Experiments\visual-evoked-potentials\psychopy_experiments\media/logos/facebook.png,ფული,0.16,0.7,0.16,0.0,1.0,right,931.52,931.52
2025-10-31T08:50:37.794,15,youtube,C:\Users\Nadira\Documents\Experiments\visual-evoked-potentials\psychopy_experiments\media/logos/youtube.png,ღონისძიება,0.16,0.7,0.16,0.0,1.0,right,971.89,971.89
2025-10-31T08:50:40.007,16,youtube,C:\Users\Nadira\Documents\Experiments\visual-evoked-potentials\psychopy_experiments\media/logos/youtube.png,ამბები,0.16,0.7,0.16,0.0,1.0,,,
2025-10-31T08:50:42.222,17,facebook,C:\Users\Nadira\Documents\Experiments\visual-evoked-potentials\psychopy_experiments\media/logos/facebook.png,ვიოლინო,0.16,0.7,0.16,0.0,1.0,left,762.83,762.83
2025-10-31T08:50:44.436,18,facebook,C:\Users\Nadira\Documents\Experiments\visual-evoked-potentials\psychopy_experiments\media/logos/facebook.png,აგური,0.16,0.7,0.16,0.0,1.0,left,763.02,763.02
2025-10-31T08:50:46.668,19,facebook,C:\Users\Nadira\Documents\Experiments\visual-evoked-potentials\psychopy_experiments\media/logos/facebook.png,სანთელი,0.16,0.7,0.16,0.0,1.0,left,699.65,699.65
2025-10-31T08:50:48.899,20,facebook,C:\Users\Nadira\Documents\Experiments\visual-evoked-potentials\psychopy_experiments\media/logos/facebook.png,სწავლა,0.16,0.7,0.16,0.0,1.0,,,
2025-10-31T08:50:51.113,21,facebook,C:\Users\Nadira\Documents\Experiments\visual-evoked-potentials\psychopy_experiments\media/logos/facebook.png,ინგეიჯმენთი,0.16,0.7,0.16,0.0,1.0,,,
2025-10-31T08:50:53.344,22,youtube,C:\Users\Nadira\Documents\Experiments\visual-evoked-potentials\psychopy_experiments\media/logos/youtube.png,ღონისძიება,0.16,0.7,0.16,0.0,1.0,right,730.02,730.02
2025-10-31T08:50:55.559,23,youtube,C:\Users\Nadira\Documents\Experiments\visual-evoked-potentials\psychopy_experiments\media/logos/youtube.png,ჩელენჯი,0.16,0.7,0.16,0.0,1.0,right,762.73,762.73
2025-10-31T08:50:57.791,24,facebook,C:\Users\Nadira\Documents\Experiments\visual-evoked-potentials\psychopy_experiments\media/logos/facebook.png,მთები,0.16,0.7,0.16,0.0,1.0,left,664.23,664.23
2025-10-31T08:51:00.005,25,facebook,C:\Users\Nadira\Documents\Experiments\visual-evoked-potentials\psychopy_experiments\media/logos/facebook.png,პოლიტიკა,0.16,0.7,0.16,0.0,1.0,,,
2025-10-31T08:51:02.238,26,youtube,C:\Users\Nadira\Documents\Experiments\visual-evoked-potentials\psychopy_experiments\media/logos/youtube.png,ინგეიჯმენთი,0.16,0.7,0.16,0.0,1.0,left,948.72,948.72
2025-10-31T08:51:04.469,27,facebook,C:\Users\Nadira\Documents\Experiments\visual-evoked-potentials\psychopy_experiments\media/logos/facebook.png,ამბები,0.16,0.7,0.16,0.0,1.0,,,
2025-10-31T08:51:06.683,28,facebook,C:\Users\Nadira\Documents\Experiments\visual-evoked-potentials\psychopy_experiments\media/logos/facebook.png,ნოსტალგია,0.16,0.7,0.16,0.0,1.0,right,796.73,796.73
2025-10-31T08:51:08.883,29,facebook,C:\Users\Nadira\Documents\Experiments\visual-evoked-potentials\psychopy_experiments\media/logos/facebook.png,ბალიში,0.16,0.7,0.16,0.0,1.0,right,825.02,825.02
2025-10-31T08:51:11.112,30,facebook,C:\Users\Nadira\Documents\Experiments\visual-evoked-potentials\psychopy_experiments\media/logos/facebook.png,მეგობრები,0.16,0.7,0.16,0.0,1.0,,,
2025-10-31T08:51:13.346,31,facebook,C:\Users\Nadira\Documents\Experiments\visual-evoked-potentials\psychopy_experiments\media/logos/facebook.png,ბალიში,0.16,0.7,0.16,0.0,1.0,,,
2025-10-31T08:51:15.576,32,facebook,C:\Users\Nadira\Documents\Experiments\visual-evoked-potentials\psychopy_experiments\media/logos/facebook.png,ალგორითმი,0.16,0.7,0.16,0.0,1.0,,,
2025-10-31T08:51:17.774,33,facebook,C:\Users\Nadira\Documents\Experiments\visual-evoked-potentials\psychopy_experiments\media/logos/facebook.png,თვალთვალი,0.16,0.7,0.16,0.0,1.0,right,844.61,844.61
2025-10-31T08:51:20.004,34,facebook,C:\Users\Nadira\Documents\Experiments\visual-evoked-potentials\psychopy_experiments\media/logos/facebook.png,ჯგუფი,0.16,0.7,0.16,0.0,1.0,right,665.49,665.49
2025-10-31T08:51:22.220,35,facebook,C:\Users\Nadira\Documents\Experiments\visual-evoked-potentials\psychopy_experiments\media/logos/facebook.png,საზოგადოება,0.16,0.7,0.16,0.0,1.0,right,794.75,794.75
2025-10-31T08:51:24.419,36,facebook,C:\Users\Nadira\Documents\Experiments\visual-evoked-potentials\psychopy_experiments\media/logos/facebook.png,ფული,0.16,0.7,0.16,0.0,1.0,right,732.16,732.16
2025-10-31T08:51:26.633,37,facebook,C:\Users\Nadira\Documents\Experiments\visual-evoked-potentials\psychopy_experiments\media/logos/facebook.png,ამბები,0.16,0.7,0.16,0.0,1.0,right,896.73,896.73
2025-10-31T08:51:28.864,38,youtube,C:\Users\Nadira\Documents\Experiments\visual-evoked-potentials\psychopy_experiments\media/logos/youtube.png,ტყუილი,0.16,0.7,0.16,0.0,1.0,right,994.78,994.78
2025-10-31T08:51:31.080,39,facebook,C:\Users\Nadira\Documents\Experiments\visual-evoked-potentials\psychopy_experiments\media/logos/facebook.png,დრო,0.16,0.7,0.16,0.0,1.0,right,648.25,648.25
2025-10-31T08:51:33.293,40,youtube,C:\Users\Nadira\Documents\Experiments\visual-evoked-potentials\psychopy_experiments\media/logos/youtube.png,აგური,0.16,0.7,0.16,0.0,1.0,left,646.47,646.47
2025-10-31T08:51:35.507,41,youtube,C:\Users\Nadira\Documents\Experiments\visual-evoked-potentials\psychopy_experiments\media/logos/youtube.png,ტყუილი,0.16,0.7,0.16,0.0,1.0,,,
2025-10-31T08:51:37.724,42,facebook,C:\Users\Nadira\Documents\Experiments\visual-evoked-potentials\psychopy_experiments\media/logos/facebook.png,კონტენტი,0.16,0.7,0.16,0.0,1.0,right,746.78,746.78
2025-10-31T08:51:39.954,43,youtube,C:\Users\Nadira\Documents\Experiments\visual-evoked-potentials\psychopy_experiments\media/logos/youtube.png,თვალთვალი,0.16,0.7,0.16,0.0,1.0,right,729.19,729.19
2025-10-31T08:51:42.168,44,facebook,C:\Users\Nadira\Documents\Experiments\visual-evoked-potentials\psychopy_experiments\media/logos/facebook.png,ქრიეთორი,0.16,0.7,0.16,0.0,1.0,,,
2025-10-31T08:51:44.383,45,youtube,C:\Users\Nadira\Documents\Experiments\visual-evoked-potentials\psychopy_experiments\media/logos/youtube.png,მესიჯი,0.16,0.7,0.16,0.0,1.0,right,796.05,796.05
2025-10-31T08:51:46.616,46,facebook,C:\Users\Nadira\Documents\Experiments\visual-evoked-potentials\psychopy_experiments\media/logos/facebook.png,საზოგადოება,0.16,0.7,0.16,0.0,1.0,right,815.08,815.08
2025-10-31T08:51:48.830,47,youtube,C:\Users\Nadira\Documents\Experiments\visual-evoked-potentials\psychopy_experiments\media/logos/youtube.png,საზოგადოება,0.16,0.7,0.16,0.0,1.0,,,
2025-10-31T08:51:51.043,48,youtube,C:\Users\Nadira\Documents\Experiments\visual-evoked-potentials\psychopy_experiments\media/logos/youtube.png,კონტენტი,0.16,0.7,0.16,0.0,1.0,right,881.09,881.09
2025-10-31T08:51:53.242,49,youtube,C:\Users\Nadira\Documents\Experiments\visual-evoked-potentials\psychopy_experiments\media/logos/youtube.png,წიგნი,0.16,0.7,0.16,0.0,1.0,left,663.94,663.94
2025-10-31T08:51:55.457,50,facebook,C:\Users\Nadira\Documents\Experiments\visual-evoked-potentials\psychopy_experiments\media/logos/facebook.png,ბალიში,0.16,0.7,0.16,0.0,1.0,left,814.27,814.27
2025-10-31T08:51:57.638,51,youtube,C:\Users\Nadira\Documents\Experiments\visual-evoked-potentials\psychopy_experiments\media/logos/youtube.png,წიგნი,0.16,0.7,0.16,0.0,1.0,left,728.49,728.49
2025-10-31T08:51:59.852,52,youtube,C:\Users\Nadira\Documents\Experiments\visual-evoked-potentials\psychopy_experiments\media/logos/youtube.png,პოსტი,0.16,0.7,0.16,0.0,1.0,right,847.83,847.83
2025-10-31T08:52:02.051,53,facebook,C:\Users\Nadira\Documents\Experiments\visual-evoked-potentials\psychopy_experiments\media/logos/facebook.png,ჩენელი,0.16,0.7,0.16,0.0,1.0,left,963.29,963.29
2025-10-31T08:52:04.250,54,youtube,C:\Users\Nadira\Documents\Experiments\visual-evoked-potentials\psychopy_experiments\media/logos/youtube.png,ავთენტურობა,0.16,0.7,0.16,0.0,1.0,,,
2025-10-31T08:52:06.480,55,youtube,C:\Users\Nadira\Documents\Experiments\visual-evoked-potentials\psychopy_experiments\media/logos/youtube.png,პოლიტიკა,0.16,0.7,0.16,0.0,1.0,left,742.13,742.13
2025-10-31T08:52:08.696,56,youtube,C:\Users\Nadira\Documents\Experiments\visual-evoked-potentials\psychopy_experiments\media/logos/youtube.png,გართობა,0.16,0.7,0.16,0.0,1.0,left,912.47,912.47
2025-10-31T08:52:10.927,57,facebook,C:\Users\Nadira\Documents\Experiments\visual-evoked-potentials\psychopy_experiments\media/logos/facebook.png,კომენტარები,0.16,0.7,0.16,0.0,1.0,,,
2025-10-31T08:52:13.141,58,youtube,C:\Users\Nadira\Documents\Experiments\visual-evoked-potentials\psychopy_experiments\media/logos/youtube.png,ინგეიჯმენთი,0.16,0.7,0.16,0.0,1.0,left,912.34,912.34
2025-10-31T08:52:15.357,59,youtube,C:\Users\Nadira\Documents\Experiments\visual-evoked-potentials\psychopy_experiments\media/logos/youtube.png,ბალიში,0.16,0.7,0.16,0.0,1.0,left,697.35,697.35
2025-10-31T08:52:17.571,60,youtube,C:\Users\Nadira\Documents\Experiments\visual-evoked-potentials\psychopy_experiments\media/logos/youtube.png,ტუტორიალი,0.16,0.7,0.16,0.0,1.0,,,
2025-10-31T08:52:19.785,61,youtube,C:\Users\Nadira\Documents\Experiments\visual-evoked-potentials\psychopy_experiments\media/logos/youtube.png,თვალთვალი,0.16,0.7,0.16,0.0,1.0,right,745.01,745.01
2025-10-31T08:52:21.984,62,facebook,C:\Users\Nadira\Documents\Experiments\visual-evoked-potentials\psychopy_experiments\media/logos/facebook.png,ნოსტალგია,0.16,0.7,0.16,0.0,1.0,right,711.09,711.09
2025-10-31T08:52:24.215,63,facebook,C:\Users\Nadira\Documents\Experiments\visual-evoked-potentials\psychopy_experiments\media/logos/facebook.png,ვიოლინო,0.16,0.7,0.16,0.0,1.0,left,679.86,679.86
2025-10-31T08:52:26.448,64,youtube,C:\Users\Nadira\Documents\Experiments\visual-evoked-potentials\psychopy_experiments\media/logos/youtube.png,რეალობა,0.16,0.7,0.16,0.0,1.0,left,996.31,996.31
2025-10-31T08:52:28.678,65,facebook,C:\Users\Nadira\Documents\Experiments\visual-evoked-potentials\psychopy_experiments\media/logos/facebook.png,საზოგადოება,0.16,0.7,0.16,0.0,1.0,,,
2025-10-31T08:52:30.894,66,youtube,C:\Users\Nadira\Documents\Experiments\visual-evoked-potentials\psychopy_experiments\media/logos/youtube.png,სწავლა,0.16,0.7,0.16,0.0,1.0,left,794.88,794.88
2025-10-31T08:52:33.091,67,youtube,C:\Users\Nadira\Documents\Experiments\visual-evoked-potentials\psychopy_experiments\media/logos/youtube.png,ოკეანე,0.16,0.7,0.16,0.0,1.0,left,829.13,829.13
2025-10-31T08:52:35.305,68,facebook,C:\Users\Nadira\Documents\Experiments\visual-evoked-potentials\psychopy_experiments\media/logos/facebook.png,ტყუილი,0.16,0.7,0.16,0.0,1.0,left,779.7,779.7
2025-10-31T08:52:37.521,69,facebook,C:\Users\Nadira\Documents\Experiments\visual-evoked-potentials\psychopy_experiments\media/logos/facebook.png,მესიჯი,0.16,0.7,0.16,0.0,1.0,right,780.4,780.4
2025-10-31T08:52:39.736,70,youtube,C:\Users\Nadira\Documents\Experiments\visual-evoked-potentials\psychopy_experiments\media/logos/youtube.png,სწავლა,0.16,0.7,0.16,0.0,1.0,left,896.43,896.43
2025-10-31T08:52:41.966,71,facebook,C:\Users\Nadira\Documents\Experiments\visual-evoked-potentials\psychopy_experiments\media/logos/facebook.png,ცისარტყელა,0.16,0.7,0.16,0.0,1.0,left,813.11,813.11
2025-10-31T08:52:44.181,72,youtube,C:\Users\Nadira\Documents\Experiments\visual-evoked-potentials\psychopy_experiments\media/logos/youtube.png,კომენტარები,0.16,0.7,0.16,0.0,1.0,right,914.91,914.91
2025-10-31T08:52:46.395,73,youtube,C:\Users\Nadira\Documents\Experiments\visual-evoked-potentials\psychopy_experiments\media/logos/youtube.png,სწავლა,0.16,0.7,0.16,0.0,1.0,left,614.79,614.79
2025-10-31T08:52:48.595,74,youtube,C:\Users\Nadira\Documents\Experiments\visual-evoked-potentials\psychopy_experiments\media/logos/youtube.png,ღონისძიება,0.16,0.7,0.16,0.0,1.0,right,945.47,945.47
2025-10-31T08:52:50.825,75,facebook,C:\Users\Nadira\Documents\Experiments\visual-evoked-potentials\psychopy_experiments\media/logos/facebook.png,თვალთვალი,0.16,0.7,0.16,0.0,1.0,left,680.56,680.56
2025-10-31T08:52:53.040,76,youtube,C:\Users\Nadira\Documents\Experiments\visual-evoked-potentials\psychopy_experiments\media/logos/youtube.png,პროფილი,0.16,0.7,0.16,0.0,1.0,right,847.29,847.29
2025-10-31T08:52:55.255,77,youtube,C:\Users\Nadira\Documents\Experiments\visual-evoked-potentials\psychopy_experiments\media/logos/youtube.png,სტრიმი,0.16,0.7,0.16,0.0,1.0,right,728.09,728.09
2025-10-31T08:52:57.471,78,facebook,C:\Users\Nadira\Documents\Experiments\visual-evoked-potentials\psychopy_experiments\media/logos/facebook.png,დრო,0.16,0.7,0.16,0.0,1.0,right,744.35,744.35
2025-10-31T08:52:59.700,79,youtube,C:\Users\Nadira\Documents\Experiments\visual-evoked-potentials\psychopy_experiments\media/logos/youtube.png,სტრიმი,0.16,0.7,0.16,0.0,1.0,right,778.73,778.73
2025-10-31T08:53:01.915,80,facebook,C:\Users\Nadira\Documents\Experiments\visual-evoked-potentials\psychopy_experiments\media/logos/facebook.png,ცისარტყელა,0.16,0.7,0.16,0.0,1.0,left,679.74,679.74
2025-10-31T08:53:04.130,81,facebook,C:\Users\Nadira\Documents\Experiments\visual-evoked-potentials\psychopy_experiments\media/logos/facebook.png,წიგნი,0.16,0.7,0.16,0.0,1.0,left,763.02,763.02
2025-10-31T08:53:06.329,82,facebook,C:\Users\Nadira\Documents\Experiments\visual-evoked-potentials\psychopy_experiments\media/logos/facebook.png,გართობა,0.16,0.7,0.16,0.0,1.0,left,913.4,913.4
2025-10-31T08:53:08.542,83,youtube,C:\Users\Nadira\Documents\Experiments\visual-evoked-potentials\psychopy_experiments\media/logos/youtube.png,კონტენტი,0.16,0.7,0.16,0.0,1.0,right,761.96,761.96
2025-10-31T08:53:10.742,84,youtube,C:\Users\Nadira\Documents\Experiments\visual-evoked-potentials\psychopy_experiments\media/logos/youtube.png,ვიოლინო,0.16,0.7,0.16,0.0,1.0,,,
2025-10-31T08:53:12.939,85,youtube,C:\Users\Nadira\Documents\Experiments\visual-evoked-potentials\psychopy_experiments\media/logos/youtube.png,დრო,0.16,0.7,0.16,0.0,1.0,right,928.66,928.66
2025-10-31T08:53:15.154,86,facebook,C:\Users\Nadira\Documents\Experiments\visual-evoked-potentials\psychopy_experiments\media/logos/facebook.png,ოკეანე,0.16,0.7,0.16,0.0,1.0,left,730.3,730.3
2025-10-31T08:53:17.371,87,youtube,C:\Users\Nadira\Documents\Experiments\visual-evoked-potentials\psychopy_experiments\media/logos/youtube.png,კონტენტი,0.16,0.7,0.16,0.0,1.0,right,931.55,931.55
2025-10-31T08:53:19.600,88,facebook,C:\Users\Nadira\Documents\Experiments\visual-evoked-potentials\psychopy_experiments\media/logos/facebook.png,ჩენელი,0.16,0.7,0.16,0.0,1.0,,,
2025-10-31T08:53:21.817,89,youtube,C:\Users\Nadira\Documents\Experiments\visual-evoked-potentials\psychopy_experiments\media/logos/youtube.png,საზოგადოება,0.16,0.7,0.16,0.0,1.0,right,779.51,779.51
2025-10-31T08:53:24.031,90,youtube,C:\Users\Nadira\Documents\Experiments\visual-evoked-potentials\psychopy_experiments\media/logos/youtube.png,ტუტორიალი,0.16,0.7,0.16,0.0,1.0,,,
2025-10-31T08:53:26.260,91,youtube,C:\Users\Nadira\Documents\Experiments\visual-evoked-potentials\psychopy_experiments\media/logos/youtube.png,ჩელენჯი,0.16,0.7,0.16,0.0,1.0,right,895.92,895.92
2025-10-31T08:53:28.475,92,youtube,C:\Users\Nadira\Documents\Experiments\visual-evoked-potentials\psychopy_experiments\media/logos/youtube.png,ცისარტყელა,0.16,0.7,0.16,0.0,1.0,left,645.62,645.62
2025-10-31T08:53:30.691,93,youtube,C:\Users\Nadira\Documents\Experiments\visual-evoked-potentials\psychopy_experiments\media/logos/youtube.png,აგური,0.16,0.7,0.16,0.0,1.0,left,980.46,980.46
2025-10-31T08:53:32.888,94,youtube,C:\Users\Nadira\Documents\Experiments\visual-evoked-potentials\psychopy_experiments\media/logos/youtube.png,ნოსტალგია,0.16,0.7,0.16,0.0,1.0,right,896.15,896.15
2025-10-31T08:53:35.105,95,youtube,C:\Users\Nadira\Documents\Experiments\visual-evoked-potentials\psychopy_experiments\media/logos/youtube.png,სანთელი,0.16,0.7,0.16,0.0,1.0,left,747.43,747.43
2025-10-31T08:53:37.336,96,youtube,C:\Users\Nadira\Documents\Experiments\visual-evoked-potentials\psychopy_experiments\media/logos/youtube.png,ნოსტალგია,0.16,0.7,0.16,0.0,1.0,right,995.74,995.74
2025-10-31T08:53:39.549,97,youtube,C:\Users\Nadira\Documents\Experiments\visual-evoked-potentials\psychopy_experiments\media/logos/youtube.png,რეაქცია,0.16,0.7,0.16,0.0,1.0,right,797.28,797.28
2025-10-31T08:53:41.764,98,youtube,C:\Users\Nadira\Documents\Experiments\visual-evoked-potentials\psychopy_experiments\media/logos/youtube.png,საზოგადოება,0.16,0.7,0.16,0.0,1.0,,,
2025-10-31T08:53:43.997,99,facebook,C:\Users\Nadira\Documents\Experiments\visual-evoked-potentials\psychopy_experiments\media/logos/facebook.png,სწავლა,0.16,0.7,0.16,0.0,1.0,left,631.18,631.18
2025-10-31T08:53:46.210,100,facebook,C:\Users\Nadira\Documents\Experiments\visual-evoked-potentials\psychopy_experiments\media/logos/facebook.png,პოლიტიკა,0.16,0.7,0.16,0.0,1.0,left,828.55,828.55
2025-10-31T08:53:48.425,101,youtube,C:\Users\Nadira\Documents\Experiments\visual-evoked-potentials\psychopy_experiments\media/logos/youtube.png,კომენტარები,0.16,0.7,0.16,0.0,1.0,right,847.8,847.8
2025-10-31T08:53:50.624,102,facebook,C:\Users\Nadira\Documents\Experiments\visual-evoked-potentials\psychopy_experiments\media/logos/facebook.png,ჯგუფი,0.16,0.7,0.16,0.0,1.0,,,
2025-10-31T08:53:52.855,103,youtube,C:\Users\Nadira\Documents\Experiments\visual-evoked-potentials\psychopy_experiments\media/logos/youtube.png,მესიჯი,0.16,0.7,0.16,0.0,1.0,right,664.74,664.74
2025-10-31T08:53:55.070,104,facebook,C:\Users\Nadira\Documents\Experiments\visual-evoked-potentials\psychopy_experiments\media/logos/facebook.png,ვიდეო,0.16,0.7,0.16,0.0,1.0,,,
2025-10-31T08:53:57.284,105,youtube,C:\Users\Nadira\Documents\Experiments\visual-evoked-potentials\psychopy_experiments\media/logos/youtube.png,რეაქცია,0.16,0.7,0.16,0.0,1.0,,,
2025-10-31T08:53:59.498,106,youtube,C:\Users\Nadira\Documents\Experiments\visual-evoked-potentials\psychopy_experiments\media/logos/youtube.png,გართობა,0.16,0.7,0.16,0.0,1.0,right,698.09,698.09
2025-10-31T08:54:01.713,107,facebook,C:\Users\Nadira\Documents\Experiments\visual-evoked-potentials\psychopy_experiments\media/logos/facebook.png,ტუტორიალი,0.16,0.7,0.16,0.0,1.0,right,863.58,863.58
2025-10-31T08:54:03.927,108,youtube,C:\Users\Nadira\Documents\Experiments\visual-evoked-potentials\psychopy_experiments\media/logos/youtube.png,ოკეანე,0.16,0.7,0.16,0.0,1.0,left,680.31,680.31
2025-10-31T08:54:06.127,109,youtube,C:\Users\Nadira\Documents\Experiments\visual-evoked-potentials\psychopy_experiments\media/logos/youtube.png,ჯგუფი,0.16,0.7,0.16,0.0,1.0,right,763.57,763.57
2025-10-31T08:54:08.341,110,facebook,C:\Users\Nadira\Documents\Experiments\visual-evoked-potentials\psychopy_experiments\media/logos/facebook.png,რეალობა,0.16,0.7,0.16,0.0,1.0,left,712.14,712.14
2025-10-31T08:54:10.556,111,facebook,C:\Users\Nadira\Documents\Experiments\visual-evoked-potentials\psychopy_experiments\media/logos/facebook.png,ჩელენჯი,0.16,0.7,0.16,0.0,1.0,,,
2025-10-31T08:54:12.770,112,facebook,C:\Users\Nadira\Documents\Experiments\visual-evoked-potentials\psychopy_experiments\media/logos/facebook.png,საზოგადოება,0.16,0.7,0.16,0.0,1.0,right,829.14,829.14
2025-10-31T08:54:14.984,113,youtube,C:\Users\Nadira\Documents\Experiments\visual-evoked-potentials\psychopy_experiments\media/logos/youtube.png,სანთელი,0.16,0.7,0.16,0.0,1.0,left,695.72,695.72
2025-10-31T08:54:17.199,114,facebook,C:\Users\Nadira\Documents\Experiments\visual-evoked-potentials\psychopy_experiments\media/logos/facebook.png,პოლიტიკა,0.16,0.7,0.16,0.0,1.0,right,845.62,845.62
2025-10-31T08:54:19.414,115,youtube,C:\Users\Nadira\Documents\Experiments\visual-evoked-potentials\psychopy_experiments\media/logos/youtube.png,ჯგუფი,0.16,0.7,0.16,0.0,1.0,left,797.64,797.64
2025-10-31T08:54:21.629,116,youtube,C:\Users\Nadira\Documents\Experiments\visual-evoked-potentials\psychopy_experiments\media/logos/youtube.png,გართობა,0.16,0.7,0.16,0.0,1.0,right,713.95,713.95
2025-10-31T08:54:23.829,117,youtube,C:\Users\Nadira\Documents\Experiments\visual-evoked-potentials\psychopy_experiments\media/logos/youtube.png,მთები,0.16,0.7,0.16,0.0,1.0,left,647.64,647.64
2025-10-31T08:54:26.058,118,youtube,C:\Users\Nadira\Documents\Experiments\visual-evoked-potentials\psychopy_experiments\media/logos/youtube.png,პოლიტიკა,0.16,0.7,0.16,0.0,1.0,right,729.03,729.03
2025-10-31T08:54:28.275,119,youtube,C:\Users\Nadira\Documents\Experiments\visual-evoked-potentials\psychopy_experiments\media/logos/youtube.png,მთები,0.16,0.7,0.16,0.0,1.0,left,479.29,479.29
2025-10-31T08:54:30.488,120,facebook,C:\Users\Nadira\Documents\Experiments\visual-evoked-potentials\psychopy_experiments\media/logos/facebook.png,თვალთვალი,0.16,0.7,0.16,0.0,1.0,right,845.45,845.45
2025-10-31T08:54:32.702,121,youtube,C:\Users\Nadira\Documents\Experiments\visual-evoked-potentials\psychopy_experiments\media/logos/youtube.png,სტრიმი,0.16,0.7,0.16,0.0,1.0,right,696.57,696.57
2025-10-31T08:54:34.902,122,facebook,C:\Users\Nadira\Documents\Experiments\visual-evoked-potentials\psychopy_experiments\media/logos/facebook.png,ალგორითმი,0.16,0.7,0.16,0.0,1.0,right,744.67,744.67
2025-10-31T08:54:37.116,123,youtube,C:\Users\Nadira\Documents\Experiments\visual-evoked-potentials\psychopy_experiments\media/logos/youtube.png,რეალობა,0.16,0.7,0.16,0.0,1.0,left,996.03,996.03
2025-10-31T08:54:39.315,124,youtube,C:\Users\Nadira\Documents\Experiments\visual-evoked-potentials\psychopy_experiments\media/logos/youtube.png,ალგორითმი,0.16,0.7,0.16,0.0,1.0,right,862.56,862.56
2025-10-31T08:54:41.528,125,facebook,C:\Users\Nadira\Documents\Experiments\visual-evoked-potentials\psychopy_experiments\media/logos/facebook.png,მეგობრები,0.16,0.7,0.16,0.0,1.0,right,697.4,697.4
2025-10-31T08:54:43.744,126,facebook,C:\Users\Nadira\Documents\Experiments\visual-evoked-potentials\psychopy_experiments\media/logos/facebook.png,კავშირი,0.16,0.7,0.16,0.0,1.0,right,863.08,863.08
2025-10-31T08:54:45.941,127,facebook,C:\Users\Nadira\Documents\Experiments\visual-evoked-potentials\psychopy_experiments\media/logos/facebook.png,ოკეანე,0.16,0.7,0.16,0.0,1.0,left,612.95,612.95
2025-10-31T08:54:48.156,128,youtube,C:\Users\Nadira\Documents\Experiments\visual-evoked-potentials\psychopy_experiments\media/logos/youtube.png,ჯგუფი,0.16,0.7,0.16,0.0,1.0,right,630.72,630.72
2025-10-31T08:54:50.353,129,facebook,C:\Users\Nadira\Documents\Experiments\visual-evoked-potentials\psychopy_experiments\media/logos/facebook.png,ტყუილი,0.16,0.7,0.16,0.0,1.0,right,728.01,728.01
2025-10-31T08:54:52.570,130,youtube,C:\Users\Nadira\Documents\Experiments\visual-evoked-potentials\psychopy_experiments\media/logos/youtube.png,ნოსტალგია,0.16,0.7,0.16,0.0,1.0,right,763.21,763.21
2025-10-31T08:54:54.784,131,facebook,C:\Users\Nadira\Documents\Experiments\visual-evoked-potentials\psychopy_experiments\media/logos/facebook.png,ამბები,0.16,0.7,0.16,0.0,1.0,right,762.46,762.46
2025-10-31T08:54:56.984,132,facebook,C:\Users\Nadira\Documents\Experiments\visual-evoked-potentials\psychopy_experiments\media/logos/facebook.png,ვიოლინო,0.16,0.7,0.16,0.0,1.0,left,680.41,680.41
2025-10-31T08:54:59.197,133,facebook,C:\Users\Nadira\Documents\Experiments\visual-evoked-potentials\psychopy_experiments\media/logos/facebook.png,მთები,0.16,0.7,0.16,0.0,1.0,left,613.97,613.97
2025-10-31T08:55:01.428,134,youtube,C:\Users\Nadira\Documents\Experiments\visual-evoked-potentials\psychopy_experiments\media/logos/youtube.png,წიგნი,0.16,0.7,0.16,0.0,1.0,left,711.89,711.89
2025-10-31T08:55:03.642,135,facebook,C:\Users\Nadira\Documents\Experiments\visual-evoked-potentials\psychopy_experiments\media/logos/facebook.png,კონტენტი,0.16,0.7,0.16,0.0,1.0,,,
2025-10-31T08:55:05.856,136,facebook,C:\Users\Nadira\Documents\Experiments\visual-evoked-potentials\psychopy_experiments\media/logos/facebook.png,ვიოლინო,0.16,0.7,0.16,0.0,1.0,left,627.16,627.16
2025-10-31T08:55:08.056,137,youtube,C:\Users\Nadira\Documents\Experiments\visual-evoked-potentials\psychopy_experiments\media/logos/youtube.png,რეაქცია,0.16,0.7,0.16,0.0,1.0,right,831.42,831.42
2025-10-31T08:55:10.270,138,youtube,C:\Users\Nadira\Documents\Experiments\visual-evoked-potentials\psychopy_experiments\media/logos/youtube.png,მესიჯი,0.16,0.7,0.16,0.0,1.0,right,780.74,780.74
2025-10-31T08:55:12.453,139,youtube,C:\Users\Nadira\Documents\Experiments\visual-evoked-potentials\psychopy_experiments\media/logos/youtube.png,მეგობრები,0.16,0.7,0.16,0.0,1.0,left,829.93,829.93
2025-10-31T08:55:14.667,140,youtube,C:\Users\Nadira\Documents\Experiments\visual-evoked-potentials\psychopy_experiments\media/logos/youtube.png,ბურთი,0.16,0.7,0.16,0.0,1.0,left,729.57,729.57
2025-10-31T08:55:16.883,141,youtube,C:\Users\Nadira\Documents\Experiments\visual-evoked-potentials\psychopy_experiments\media/logos/youtube.png,ტყუილი,0.16,0.7,0.16,0.0,1.0,left,846.29,846.29
2025-10-31T08:55:19.112,142,youtube,C:\Users\Nadira\Documents\Experiments\visual-evoked-potentials\psychopy_experiments\media/logos/youtube.png,რეალობა,0.16,0.7,0.16,0.0,1.0,left,845.09,845.09
2025-10-31T08:55:21.310,143,youtube,C:\Users\Nadira\Documents\Experiments\visual-evoked-potentials\psychopy_experiments\media/logos/youtube.png,ჩენელი,0.16,0.7,0.16,0.0,1.0,,,
2025-10-31T08:55:23.526,144,youtube,C:\Users\Nadira\Documents\Experiments\visual-evoked-potentials\psychopy_experiments\media/logos/youtube.png,პოსტი,0.16,0.7,0.16,0.0,1.0,,,
2025-10-31T08:55:25.739,145,facebook,C:\Users\Nadira\Documents\Experiments\visual-evoked-potentials\psychopy_experiments\media/logos/facebook.png,ღონისძიება,0.16,0.7,0.16,0.0,1.0,right,811.62,811.62
2025-10-31T08:55:27.955,146,youtube,C:\Users\Nadira\Documents\Experiments\visual-evoked-potentials\psychopy_experiments\media/logos/youtube.png,კავშირი,0.16,0.7,0.16,0.0,1.0,,,
2025-10-31T08:55:30.152,147,facebook,C:\Users\Nadira\Documents\Experiments\visual-evoked-potentials\psychopy_experiments\media/logos/facebook.png,რეაქცია,0.16,0.7,0.16,0.0,1.0,right,863.12,863.12
2025-10-31T08:55:32.384,148,youtube,C:\Users\Nadira\Documents\Experiments\visual-evoked-potentials\psychopy_experiments\media/logos/youtube.png,პოლიტიკა,0.16,0.7,0.16,0.0,1.0,right,842.62,842.62
2025-10-31T08:55:34.598,149,facebook,C:\Users\Nadira\Documents\Experiments\visual-evoked-potentials\psychopy_experiments\media/logos/facebook.png,პეპელა,0.16,0.7,0.16,0.0,1.0,left,848.28,848.28
2025-10-31T08:55:36.812,150,youtube,C:\Users\Nadira\Documents\Experiments\visual-evoked-potentials\psychopy_experiments\media/logos/youtube.png,ნოსტალგია,0.16,0.7,0.16,0.0,1.0,left,897.67,897.67
2025-10-31T08:55:39.029,151,youtube,C:\Users\Nadira\Documents\Experiments\visual-evoked-potentials\psychopy_experiments\media/logos/youtube.png,პროფილი,0.16,0.7,0.16,0.0,1.0,left,929.92,929.92
2025-10-31T08:55:41.260,152,youtube,C:\Users\Nadira\Documents\Experiments\visual-evoked-potentials\psychopy_experiments\media/logos/youtube.png,მთები,0.16,0.7,0.16,0.0,1.0,left,662.38,662.38
2025-10-31T08:55:43.476,153,facebook,C:\Users\Nadira\Documents\Experiments\visual-evoked-potentials\psychopy_experiments\media/logos/facebook.png,პროფილი,0.16,0.7,0.16,0.0,1.0,right,914.05,914.05
2025-10-31T08:55:45.689,154,youtube,C:\Users\Nadira\Documents\Experiments\visual-evoked-potentials\psychopy_experiments\media/logos/youtube.png,რეაქცია,0.16,0.7,0.16,0.0,1.0,right,878.48,878.48
2025-10-31T08:55:47.921,155,facebook,C:\Users\Nadira\Documents\Experiments\visual-evoked-potentials\psychopy_experiments\media/logos/facebook.png,ფული,0.16,0.7,0.16,0.0,1.0,right,600.26,600.26
2025-10-31T08:55:50.135,156,facebook,C:\Users\Nadira\Documents\Experiments\visual-evoked-potentials\psychopy_experiments\media/logos/facebook.png,კავშირი,0.16,0.7,0.16,0.0,1.0,right,628.06,628.06
2025-10-31T08:55:52.350,157,facebook,C:\Users\Nadira\Documents\Experiments\visual-evoked-potentials\psychopy_experiments\media/logos/facebook.png,კონტენტი,0.16,0.7,0.16,0.0,1.0,right,699.46,699.46
2025-10-31T08:55:54.564,158,facebook,C:\Users\Nadira\Documents\Experiments\visual-evoked-potentials\psychopy_experiments\media/logos/facebook.png,პოსტი,0.16,0.7,0.16,0.0,1.0,,,
2025-10-31T08:55:56.748,159,facebook,C:\Users\Nadira\Documents\Experiments\visual-evoked-potentials\psychopy_experiments\media/logos/facebook.png,გართობა,0.16,0.7,0.16,0.0,1.0,right,844.55,844.55
2025-10-31T08:55:58.961,160,facebook,C:\Users\Nadira\Documents\Experiments\visual-evoked-potentials\psychopy_experiments\media/logos/facebook.png,პროფილი,0.16,0.7,0.16,0.0,1.0,right,695.04,695.04
2025-10-31T08:56:01.176,161,facebook,C:\Users\Nadira\Documents\Experiments\visual-evoked-potentials\psychopy_experiments\media/logos/facebook.png,ინგეიჯმენთი,0.16,0.7,0.16,0.0,1.0,left,914.23,914.23
2025-10-31T08:56:03.407,162,youtube,C:\Users\Nadira\Documents\Experiments\visual-evoked-potentials\psychopy_experiments\media/logos/youtube.png,გართობა,0.16,0.7,0.16,0.0,1.0,right,746.89,746.89
2025-10-31T08:56:05.606,163,youtube,C:\Users\Nadira\Documents\Experiments\visual-evoked-potentials\psychopy_experiments\media/logos/youtube.png,ღონისძიება,0.16,0.7,0.16,0.0,1.0,right,763.14,763.14
2025-10-31T08:56:07.820,164,youtube,C:\Users\Nadira\Documents\Experiments\visual-evoked-potentials\psychopy_experiments\media/logos/youtube.png,ამბები,0.16,0.7,0.16,0.0,1.0,right,913.07,913.07
2025-10-31T08:56:10.019,165,facebook,C:\Users\Nadira\Documents\Experiments\visual-evoked-potentials\psychopy_experiments\media/logos/facebook.png,მესიჯი,0.16,0.7,0.16,0.0,1.0,right,649.2,649.2
2025-10-31T08:56:12.216,166,facebook,C:\Users\Nadira\Documents\Experiments\visual-evoked-potentials\psychopy_experiments\media/logos/facebook.png,პეპელა,0.16,0.7,0.16,0.0,1.0,left,679.98,679.98
2025-10-31T08:56:14.430,167,youtube,C:\Users\Nadira\Documents\Experiments\visual-evoked-potentials\psychopy_experiments\media/logos/youtube.png,აგური,0.16,0.7,0.16,0.0,1.0,left,697.11,697.11
2025-10-31T08:56:16.645,168,facebook,C:\Users\Nadira\Documents\Experiments\visual-evoked-potentials\psychopy_experiments\media/logos/facebook.png,კომენტარები,0.16,0.7,0.16,0.0,1.0,right,746.79,746.79
2025-10-31T08:56:18.861,169,youtube,C:\Users\Nadira\Documents\Experiments\visual-evoked-potentials\psychopy_experiments\media/logos/youtube.png,კომენტარები,0.16,0.7,0.16,0.0,1.0,right,899.72,899.72
2025-10-31T08:56:21.075,170,youtube,C:\Users\Nadira\Documents\Experiments\visual-evoked-potentials\psychopy_experiments\media/logos/youtube.png,კონტენტი,0.16,0.7,0.16,0.0,1.0,right,745.29,745.29
2025-10-31T08:56:23.289,171,facebook,C:\Users\Nadira\Documents\Experiments\visual-evoked-potentials\psychopy_experiments\media/logos/facebook.png,სტრიმი,0.16,0.7,0.16,0.0,1.0,right,628.88,628.88
2025-10-31T08:56:25.505,172,youtube,C:\Users\Nadira\Documents\Experiments\visual-evoked-potentials\psychopy_experiments\media/logos/youtube.png,ჩენელი,0.16,0.7,0.16,0.0,1.0,right,797.07,797.07
2025-10-31T08:56:27.719,173,youtube,C:\Users\Nadira\Documents\Experiments\visual-evoked-potentials\psychopy_experiments\media/logos/youtube.png,პეპელა,0.16,0.7,0.16,0.0,1.0,left,578.05,578.05
2025-10-31T08:56:29.935,174,facebook,C:\Users\Nadira\Documents\Experiments\visual-evoked-potentials\psychopy_experiments\media/logos/facebook.png,ქრიეთორი,0.16,0.7,0.16,0.0,1.0,right,730.93,730.93
2025-10-31T08:56:32.132,175,youtube,C:\Users\Nadira\Documents\Experiments\visual-evoked-potentials\psychopy_experiments\media/logos/youtube.png,კავშირი,0.16,0.7,0.16,0.0,1.0,left,828.46,828.46
2025-10-31T08:56:34.331,176,youtube,C:\Users\Nadira\Documents\Experiments\visual-evoked-potentials\psychopy_experiments\media/logos/youtube.png,ჩენელი,0.16,0.7,0.16,0.0,1.0,right,731.55,731.55
2025-10-31T08:56:36.561,177,facebook,C:\Users\Nadira\Documents\Experiments\visual-evoked-potentials\psychopy_experiments\media/logos/facebook.png,კავშირი,0.16,0.7,0.16,0.0,1.0,right,712.27,712.27
2025-10-31T08:56:38.760,178,youtube,C:\Users\Nadira\Documents\Experiments\visual-evoked-potentials\psychopy_experiments\media/logos/youtube.png,წიგნი,0.16,0.7,0.16,0.0,1.0,left,680.87,680.87
2025-10-31T08:56:40.959,179,facebook,C:\Users\Nadira\Documents\Experiments\visual-evoked-potentials\psychopy_experiments\media/logos/facebook.png,სტრიმი,0.16,0.7,0.16,0.0,1.0,right,612.68,612.68
2025-10-31T08:56:43.189,180,youtube,C:\Users\Nadira\Documents\Experiments\visual-evoked-potentials\psychopy_experiments\media/logos/youtube.png,ვიოლინო,0.16,0.7,0.16,0.0,1.0,left,628.36,628.36
2025-10-31T08:56:45.404,181,facebook,C:\Users\Nadira\Documents\Experiments\visual-evoked-potentials\psychopy_experiments\media/logos/facebook.png,კონტენტი,0.16,0.7,0.16,0.0,1.0,right,828.74,828.74
2025-10-31T08:56:47.602,182,youtube,C:\Users\Nadira\Documents\Experiments\visual-evoked-potentials\psychopy_experiments\media/logos/youtube.png,პოლიტიკა,0.16,0.7,0.16,0.0,1.0,left,764.53,764.53
2025-10-31T08:56:49.818,183,youtube,C:\Users\Nadira\Documents\Experiments\visual-evoked-potentials\psychopy_experiments\media/logos/youtube.png,ალგორითმი,0.16,0.7,0.16,0.0,1.0,right,712.5,712.5
2025-10-31T08:56:52.031,184,youtube,C:\Users\Nadira\Documents\Experiments\visual-evoked-potentials\psychopy_experiments\media/logos/youtube.png,ფული,0.16,0.7,0.16,0.0,1.0,right,597.48,597.48
2025-10-31T08:56:54.246,185,facebook,C:\Users\Nadira\Documents\Experiments\visual-evoked-potentials\psychopy_experiments\media/logos/facebook.png,ქრიეთორი,0.16,0.7,0.16,0.0,1.0,right,711.77,711.77
2025-10-31T08:56:56.461,186,facebook,C:\Users\Nadira\Documents\Experiments\visual-evoked-potentials\psychopy_experiments\media/logos/facebook.png,რეალობა,0.16,0.7,0.16,0.0,1.0,left,880.96,880.96
2025-10-31T08:56:58.676,187,youtube,C:\Users\Nadira\Documents\Experiments\visual-evoked-potentials\psychopy_experiments\media/logos/youtube.png,კავშირი,0.16,0.7,0.16,0.0,1.0,right,679.79,679.79
2025-10-31T08:57:00.891,188,facebook,C:\Users\Nadira\Documents\Experiments\visual-evoked-potentials\psychopy_experiments\media/logos/facebook.png,ოკეანე,0.16,0.7,0.16,0.0,1.0,left,645.95,645.95
2025-10-31T08:57:03.105,189,facebook,C:\Users\Nadira\Documents\Experiments\visual-evoked-potentials\psychopy_experiments\media/logos/facebook.png,რეაქცია,0.16,0.7,0.16,0.0,1.0,right,981.03,981.03
2025-10-31T08:57:05.320,190,facebook,C:\Users\Nadira\Documents\Experiments\visual-evoked-potentials\psychopy_experiments\media/logos/facebook.png,აგური,0.16,0.7,0.16,0.0,1.0,left,547.27,547.27
2025-10-31T08:57:07.520,191,youtube,C:\Users\Nadira\Documents\Experiments\visual-evoked-potentials\psychopy_experiments\media/logos/youtube.png,ქრიეთორი,0.16,0.7,0.16,0.0,1.0,right,645.52,645.52
2025-10-31T08:57:09.733,192,youtube,C:\Users\Nadira\Documents\Experiments\visual-evoked-potentials\psychopy_experiments\media/logos/youtube.png,ბალიში,0.16,0.7,0.16,0.0,1.0,left,713.44,713.44
2025-10-31T08:57:11.930,193,facebook,C:\Users\Nadira\Documents\Experiments\visual-evoked-potentials\psychopy_experiments\media/logos/facebook.png,თვალთვალი,0.16,0.7,0.16,0.0,1.0,right,748.66,748.66
2025-10-31T08:57:14.145,194,facebook,C:\Users\Nadira\Documents\Experiments\visual-evoked-potentials\psychopy_experiments\media/logos/facebook.png,წიგნი,0.16,0.7,0.16,0.0,1.0,left,811.85,811.85
2025-10-31T08:57:16.344,195,youtube,C:\Users\Nadira\Documents\Experiments\visual-evoked-potentials\psychopy_experiments\media/logos/youtube.png,ტუტორიალი,0.16,0.7,0.16,0.0,1.0,right,712.82,712.82
2025-10-31T08:57:18.557,196,facebook,C:\Users\Nadira\Documents\Experiments\visual-evoked-potentials\psychopy_experiments\media/logos/facebook.png,პეპელა,0.16,0.7,0.16,0.0,1.0,left,579.14,579.14
2025-10-31T08:57:20.773,197,youtube,C:\Users\Nadira\Documents\Experiments\visual-evoked-potentials\psychopy_experiments\media/logos/youtube.png,ჩელენჯი,0.16,0.7,0.16,0.0,1.0,,,
2025-10-31T08:57:22.954,198,facebook,C:\Users\Nadira\Documents\Experiments\visual-evoked-potentials\psychopy_experiments\media/logos/facebook.png,კავშირი,0.16,0.7,0.16,0.0,1.0,right,897.04,897.04
2025-10-31T08:57:25.168,199,youtube,C:\Users\Nadira\Documents\Experiments\visual-evoked-potentials\psychopy_experiments\media/logos/youtube.png,ბურთი,0.16,0.7,0.16,0.0,1.0,left,795.45,795.45
2025-10-31T08:57:27.384,200,facebook,C:\Users\Nadira\Documents\Experiments\visual-evoked-potentials\psychopy_experiments\media/logos/facebook.png,რეაქცია,0.16,0.7,0.16,0.0,1.0,left,946.5,946.5
2025-10-31T08:57:29.599,201,youtube,C:\Users\Nadira\Documents\Experiments\visual-evoked-potentials\psychopy_experiments\media/logos/youtube.png,სწავლა,0.16,0.7,0.16,0.0,1.0,left,664.4,664.4
2025-10-31T08:57:31.831,202,facebook,C:\Users\Nadira\Documents\Experiments\visual-evoked-potentials\psychopy_experiments\media/logos/facebook.png,სტრიმი,0.16,0.7,0.16,0.0,1.0,,,
2025-10-31T08:57:34.011,203,facebook,C:\Users\Nadira\Documents\Experiments\visual-evoked-potentials\psychopy_experiments\media/logos/facebook.png,ცისარტყელა,0.16,0.7,0.16,0.0,1.0,,,
2025-10-31T08:57:36.210,204,facebook,C:\Users\Nadira\Documents\Experiments\visual-evoked-potentials\psychopy_experiments\media/logos/facebook.png,სტრიმი,0.16,0.7,0.16,0.0,1.0,right,748.19,748.19
2025-10-31T08:57:38.424,205,facebook,C:\Users\Nadira\Documents\Experiments\visual-evoked-potentials\psychopy_experiments\media/logos/facebook.png,კომენტარები,0.16,0.7,0.16,0.0,1.0,right,762.69,762.69
2025-10-31T08:57:40.638,206,facebook,C:\Users\Nadira\Documents\Experiments\visual-evoked-potentials\psychopy_experiments\media/logos/facebook.png,მეგობრები,0.16,0.7,0.16,0.0,1.0,right,697.43,697.43
2025-10-31T08:57:42.853,207,youtube,C:\Users\Nadira\Documents\Experiments\visual-evoked-potentials\psychopy_experiments\media/logos/youtube.png,ოკეანე,0.16,0.7,0.16,0.0,1.0,left,629.23,629.23
2025-10-31T08:57:45.069,208,youtube,C:\Users\Nadira\Documents\Experiments\visual-evoked-potentials\psychopy_experiments\media/logos/youtube.png,ალგორითმი,0.16,0.7,0.16,0.0,1.0,right,995.18,995.18
2025-10-31T08:57:47.283,209,youtube,C:\Users\Nadira\Documents\Experiments\visual-evoked-potentials\psychopy_experiments\media/logos/youtube.png,პეპელა,0.16,0.7,0.16,0.0,1.0,left,545.68,545.68
2025-10-31T08:57:49.498,210,facebook,C:\Users\Nadira\Documents\Experiments\visual-evoked-potentials\psychopy_experiments\media/logos/facebook.png,პროფილი,0.16,0.7,0.16,0.0,1.0,right,511.4,511.4
2025-10-31T08:57:51.714,211,youtube,C:\Users\Nadira\Documents\Experiments\visual-evoked-potentials\psychopy_experiments\media/logos/youtube.png,ბურთი,0.16,0.7,0.16,0.0,1.0,left,679.35,679.35
2025-10-31T08:57:53.927,212,youtube,C:\Users\Nadira\Documents\Experiments\visual-evoked-potentials\psychopy_experiments\media/logos/youtube.png,ალგორითმი,0.16,0.7,0.16,0.0,1.0,right,596.78,596.78
2025-10-31T08:57:56.127,213,youtube,C:\Users\Nadira\Documents\Experiments\visual-evoked-potentials\psychopy_experiments\media/logos/youtube.png,ავთენტურობა,0.16,0.7,0.16,0.0,1.0,right,879.81,879.81
2025-10-31T08:57:58.357,214,youtube,C:\Users\Nadira\Documents\Experiments\visual-evoked-potentials\psychopy_experiments\media/logos/youtube.png,პროფილი,0.16,0.7,0.16,0.0,1.0,right,627.96,627.96
2025-10-31T08:58:00.572,215,youtube,C:\Users\Nadira\Documents\Experiments\visual-evoked-potentials\psychopy_experiments\media/logos/youtube.png,აგური,0.16,0.7,0.16,0.0,1.0,left,563.35,563.35
2025-10-31T08:58:02.786,216,youtube,C:\Users\Nadira\Documents\Experiments\visual-evoked-potentials\psychopy_experiments\media/logos/youtube.png,პროფილი,0.16,0.7,0.16,0.0,1.0,right,595.35,595.35
2025-10-31T08:58:05.002,217,facebook,C:\Users\Nadira\Documents\Experiments\visual-evoked-potentials\psychopy_experiments\media/logos/facebook.png,ჯგუფი,0.16,0.7,0.16,0.0,1.0,right,714.82,714.82
2025-10-31T08:58:07.217,218,youtube,C:\Users\Nadira\Documents\Experiments\visual-evoked-potentials\psychopy_experiments\media/logos/youtube.png,კავშირი,0.16,0.7,0.16,0.0,1.0,right,678.94,678.94
2025-10-31T08:58:09.413,219,youtube,C:\Users\Nadira\Documents\Experiments\visual-evoked-potentials\psychopy_experiments\media/logos/youtube.png,ვიოლინო,0.16,0.7,0.16,0.0,1.0,left,580.86,580.86
2025-10-31T08:58:11.613,220,youtube,C:\Users\Nadira\Documents\Experiments\visual-evoked-potentials\psychopy_experiments\media/logos/youtube.png,სტრიმი,0.16,0.7,0.16,0.0,1.0,right,663.88,663.88
2025-10-31T08:58:13.811,221,facebook,C:\Users\Nadira\Documents\Experiments\visual-evoked-potentials\psychopy_experiments\media/logos/facebook.png,მთები,0.16,0.7,0.16,0.0,1.0,left,561.61,561.61
2025-10-31T08:58:16.008,222,youtube,C:\Users\Nadira\Documents\Experiments\visual-evoked-potentials\psychopy_experiments\media/logos/youtube.png,რეალობა,0.16,0.7,0.16,0.0,1.0,left,812.13,812.13
2025-10-31T08:58:18.222,223,facebook,C:\Users\Nadira\Documents\Experiments\visual-evoked-potentials\psychopy_experiments\media/logos/facebook.png,ბალიში,0.16,0.7,0.16,0.0,1.0,left,628.89,628.89
2025-10-31T08:58:20.436,224,facebook,C:\Users\Nadira\Documents\Experiments\visual-evoked-potentials\psychopy_experiments\media/logos/facebook.png,ავთენტურობა,0.16,0.7,0.16,0.0,1.0,right,645.96,645.96
2025-10-31T08:58:22.636,225,facebook,C:\Users\Nadira\Documents\Experiments\visual-evoked-potentials\psychopy_experiments\media/logos/facebook.png,რეალობა,0.16,0.7,0.16,0.0,1.0,left,712.84,712.84
2025-10-31T08:58:24.851,226,facebook,C:\Users\Nadira\Documents\Experiments\visual-evoked-potentials\psychopy_experiments\media/logos/facebook.png,წიგნი,0.16,0.7,0.16,0.0,1.0,left,630.44,630.44
2025-10-31T08:58:27.083,227,facebook,C:\Users\Nadira\Documents\Experiments\visual-evoked-potentials\psychopy_experiments\media/logos/facebook.png,ფული,0.16,0.7,0.16,0.0,1.0,right,815.97,815.97
2025-10-31T08:58:29.313,228,youtube,C:\Users\Nadira\Documents\Experiments\visual-evoked-potentials\psychopy_experiments\media/logos/youtube.png,ბალიში,0.16,0.7,0.16,0.0,1.0,left,761.46,761.46
2025-10-31T08:58:31.511,229,youtube,C:\Users\Nadira\Documents\Experiments\visual-evoked-potentials\psychopy_experiments\media/logos/youtube.png,ქრიეთორი,0.16,0.7,0.16,0.0,1.0,right,845.35,845.35
2025-10-31T08:58:33.726,230,facebook,C:\Users\Nadira\Documents\Experiments\visual-evoked-potentials\psychopy_experiments\media/logos/facebook.png,პოლიტიკა,0.16,0.7,0.16,0.0,1.0,left,764.97,764.97
2025-10-31T08:58:35.957,231,youtube,C:\Users\Nadira\Documents\Experiments\visual-evoked-potentials\psychopy_experiments\media/logos/youtube.png,ვიდეო,0.16,0.7,0.16,0.0,1.0,right,564.51,564.51
2025-10-31T08:58:38.185,232,facebook,C:\Users\Nadira\Documents\Experiments\visual-evoked-potentials\psychopy_experiments\media/logos/facebook.png,ვიდეო,0.16,0.7,0.16,0.0,1.0,right,634.48,634.48
2025-10-31T08:58:40.403,233,youtube,C:\Users\Nadira\Documents\Experiments\visual-evoked-potentials\psychopy_experiments\media/logos/youtube.png,ტუტორიალი,0.16,0.7,0.16,0.0,1.0,,,
2025-10-31T08:58:42.618,234,facebook,C:\Users\Nadira\Documents\Experiments\visual-evoked-potentials\psychopy_experiments\media/logos/facebook.png,ინგეიჯმენთი,0.16,0.7,0.16,0.0,1.0,,,
2025-10-31T08:58:44.816,235,youtube,C:\Users\Nadira\Documents\Experiments\visual-evoked-potentials\psychopy_experiments\media/logos/youtube.png,ბურთი,0.16,0.7,0.16,0.0,1.0,left,665.04,665.04
2025-10-31T08:58:47.014,236,youtube,C:\Users\Nadira\Documents\Experiments\visual-evoked-potentials\psychopy_experiments\media/logos/youtube.png,ფული,0.16,0.7,0.16,0.0,1.0,right,843.9,843.9
2025-10-31T08:58:49.212,237,facebook,C:\Users\Nadira\Documents\Experiments\visual-evoked-potentials\psychopy_experiments\media/logos/facebook.png,ინგეიჯმენთი,0.16,0.7,0.16,0.0,1.0,right,461.21,461.21
2025-10-31T08:58:51.427,238,facebook,C:\Users\Nadira\Documents\Experiments\visual-evoked-potentials\psychopy_experiments\media/logos/facebook.png,აგური,0.16,0.7,0.16,0.0,1.0,left,495.73,495.73
2025-10-31T08:58:53.659,239,facebook,C:\Users\Nadira\Documents\Experiments\visual-evoked-potentials\psychopy_experiments\media/logos/facebook.png,ბურთი,0.16,0.7,0.16,0.0,1.0,left,544.9,544.9
2025-10-31T08:58:55.890,240,facebook,C:\Users\Nadira\Documents\Experiments\visual-evoked-potentials\psychopy_experiments\media/logos/facebook.png,წიგნი,0.16,0.7,0.16,0.0,1.0,left,645.19,645.19
2025-10-31T08:58:58.089,241,facebook,C:\Users\Nadira\Documents\Experiments\visual-evoked-potentials\psychopy_experiments\media/logos/facebook.png,ნოსტალგია,0.16,0.7,0.16,0.0,1.0,right,712.95,712.95
2025-10-31T08:59:00.304,242,youtube,C:\Users\Nadira\Documents\Experiments\visual-evoked-potentials\psychopy_experiments\media/logos/youtube.png,ვიდეო,0.16,0.7,0.16,0.0,1.0,right,498.06,498.06
2025-10-31T08:59:02.500,243,youtube,C:\Users\Nadira\Documents\Experiments\visual-evoked-potentials\psychopy_experiments\media/logos/youtube.png,სანთელი,0.16,0.7,0.16,0.0,1.0,right,712.0,712.0
2025-10-31T08:59:04.715,244,facebook,C:\Users\Nadira\Documents\Experiments\visual-evoked-potentials\psychopy_experiments\media/logos/facebook.png,საზოგადოება,0.16,0.7,0.16,0.0,1.0,left,461.83,461.83
2025-10-31T08:59:06.931,245,facebook,C:\Users\Nadira\Documents\Experiments\visual-evoked-potentials\psychopy_experiments\media/logos/facebook.png,კავშირი,0.16,0.7,0.16,0.0,1.0,right,629.62,629.62
2025-10-31T08:59:09.145,246,youtube,C:\Users\Nadira\Documents\Experiments\visual-evoked-potentials\psychopy_experiments\media/logos/youtube.png,პოსტი,0.16,0.7,0.16,0.0,1.0,right,680.69,680.69
2025-10-31T08:59:11.344,247,facebook,C:\Users\Nadira\Documents\Experiments\visual-evoked-potentials\psychopy_experiments\media/logos/facebook.png,დრო,0.16,0.7,0.16,0.0,1.0,right,631.52,631.52
2025-10-31T08:59:13.557,248,facebook,C:\Users\Nadira\Documents\Experiments\visual-evoked-potentials\psychopy_experiments\media/logos/facebook.png,ჩენელი,0.16,0.7,0.16,0.0,1.0,right,579.78,579.78
2025-10-31T08:59:15.772,249,facebook,C:\Users\Nadira\Documents\Experiments\visual-evoked-potentials\psychopy_experiments\media/logos/facebook.png,ავთენტურობა,0.16,0.7,0.16,0.0,1.0,,,
2025-10-31T08:59:17.987,250,youtube,C:\Users\Nadira\Documents\Experiments\visual-evoked-potentials\psychopy_experiments\media/logos/youtube.png,დრო,0.16,0.7,0.16,0.0,1.0,right,815.77,815.77
2025-10-31T08:59:20.187,251,youtube,C:\Users\Nadira\Documents\Experiments\visual-evoked-potentials\psychopy_experiments\media/logos/youtube.png,მეგობრები,0.16,0.7,0.16,0.0,1.0,left,747.85,747.85
2025-10-31T08:59:22.401,252,facebook,C:\Users\Nadira\Documents\Experiments\visual-evoked-potentials\psychopy_experiments\media/logos/facebook.png,წიგნი,0.16,0.7,0.16,0.0,1.0,right,613.31,613.31
2025-10-31T08:59:24.616,253,youtube,C:\Users\Nadira\Documents\Experiments\visual-evoked-potentials\psychopy_experiments\media/logos/youtube.png,ვიდეო,0.16,0.7,0.16,0.0,1.0,right,729.68,729.68
2025-10-31T08:59:26.829,254,youtube,C:\Users\Nadira\Documents\Experiments\visual-evoked-potentials\psychopy_experiments\media/logos/youtube.png,პეპელა,0.16,0.7,0.16,0.0,1.0,left,613.11,613.11
2025-10-31T08:59:29.062,255,facebook,C:\Users\Nadira\Documents\Experiments\visual-evoked-potentials\psychopy_experiments\media/logos/facebook.png,სანთელი,0.16,0.7,0.16,0.0,1.0,left,647.45,647.45
2025-10-31T08:59:31.292,256,facebook,C:\Users\Nadira\Documents\Experiments\visual-evoked-potentials\psychopy_experiments\media/logos/facebook.png,პოსტი,0.16,0.7,0.16,0.0,1.0,right,695.64,695.64
2025-10-31T08:59:33.508,257,facebook,C:\Users\Nadira\Documents\Experiments\visual-evoked-potentials\psychopy_experiments\media/logos/facebook.png,სანთელი,0.16,0.7,0.16,0.0,1.0,right,747.04,747.04
2025-10-31T08:59:35.705,258,facebook,C:\Users\Nadira\Documents\Experiments\visual-evoked-potentials\psychopy_experiments\media/logos/facebook.png,ღონისძიება,0.16,0.7,0.16,0.0,1.0,right,894.88,894.88
2025-10-31T08:59:37.903,259,facebook,C:\Users\Nadira\Documents\Experiments\visual-evoked-potentials\psychopy_experiments\media/logos/facebook.png,პოლიტიკა,0.16,0.7,0.16,0.0,1.0,left,680.55,680.55
2025-10-31T08:59:40.134,260,youtube,C:\Users\Nadira\Documents\Experiments\visual-evoked-potentials\psychopy_experiments\media/logos/youtube.png,ქრიეთორი,0.16,0.7,0.16,0.0,1.0,,,
2025-10-31T08:59:42.350,261,youtube,C:\Users\Nadira\Documents\Experiments\visual-evoked-potentials\psychopy_experiments\media/logos/youtube.png,ვიოლინო,0.16,0.7,0.16,0.0,1.0,left,596.86,596.86
2025-10-31T08:59:44.581,262,facebook,C:\Users\Nadira\Documents\Experiments\visual-evoked-potentials\psychopy_experiments\media/logos/facebook.png,სწავლა,0.16,0.7,0.16,0.0,1.0,,,
2025-10-31T08:59:46.779,263,facebook,C:\Users\Nadira\Documents\Experiments\visual-evoked-potentials\psychopy_experiments\media/logos/facebook.png,კომენტარები,0.16,0.7,0.16,0.0,1.0,right,746.22,746.22
2025-10-31T08:59:49.010,264,youtube,C:\Users\Nadira\Documents\Experiments\visual-evoked-potentials\psychopy_experiments\media/logos/youtube.png,ჩელენჯი,0.16,0.7,0.16,0.0,1.0,left,880.24,880.24
2025-10-31T08:59:51.226,265,facebook,C:\Users\Nadira\Documents\Experiments\visual-evoked-potentials\psychopy_experiments\media/logos/facebook.png,ალგორითმი,0.16,0.7,0.16,0.0,1.0,right,780.14,780.14
2025-10-31T08:59:53.441,266,youtube,C:\Users\Nadira\Documents\Experiments\visual-evoked-potentials\psychopy_experiments\media/logos/youtube.png,მთები,0.16,0.7,0.16,0.0,1.0,left,681.24,681.24
2025-10-31T08:59:55.653,267,youtube,C:\Users\Nadira\Documents\Experiments\visual-evoked-potentials\psychopy_experiments\media/logos/youtube.png,პროფილი,0.16,0.7,0.16,0.0,1.0,right,762.59,762.59
2025-10-31T08:59:57.852,268,facebook,C:\Users\Nadira\Documents\Experiments\visual-evoked-potentials\psychopy_experiments\media/logos/facebook.png,ავთენტურობა,0.16,0.7,0.16,0.0,1.0,left,714.48,714.48
2025-10-31T09:00:00.066,269,facebook,C:\Users\Nadira\Documents\Experiments\visual-evoked-potentials\psychopy_experiments\media/logos/facebook.png,ჩელენჯი,0.16,0.7,0.16,0.0,1.0,right,879.96,879.96
2025-10-31T09:00:02.266,270,facebook,C:\Users\Nadira\Documents\Experiments\visual-evoked-potentials\psychopy_experiments\media/logos/facebook.png,აგური,0.16,0.7,0.16,0.0,1.0,left,547.92,547.92
2025-10-31T09:00:04.463,271,facebook,C:\Users\Nadira\Documents\Experiments\visual-evoked-potentials\psychopy_experiments\media/logos/facebook.png,სანთელი,0.16,0.7,0.16,0.0,1.0,left,545.34,545.34
2025-10-31T09:00:06.678,272,facebook,C:\Users\Nadira\Documents\Experiments\visual-evoked-potentials\psychopy_experiments\media/logos/facebook.png,ტუტორიალი,0.16,0.7,0.16,0.0,1.0,left,581.08,581.08
2025-10-31T09:00:08.893,273,youtube,C:\Users\Nadira\Documents\Experiments\visual-evoked-potentials\psychopy_experiments\media/logos/youtube.png,ალგორითმი,0.16,0.7,0.16,0.0,1.0,left,563.6,563.6
2025-10-31T09:00:11.109,274,youtube,C:\Users\Nadira\Documents\Experiments\visual-evoked-potentials\psychopy_experiments\media/logos/youtube.png,კავშირი,0.16,0.7,0.16,0.0,1.0,right,645.72,645.72
2025-10-31T09:00:13.339,275,youtube,C:\Users\Nadira\Documents\Experiments\visual-evoked-potentials\psychopy_experiments\media/logos/youtube.png,ამბები,0.16,0.7,0.16,0.0,1.0,right,747.87,747.87
2025-10-31T09:00:15.570,276,facebook,C:\Users\Nadira\Documents\Experiments\visual-evoked-potentials\psychopy_experiments\media/logos/facebook.png,მესიჯი,0.16,0.7,0.16,0.0,1.0,right,580.67,580.67
2025-10-31T09:00:17.769,277,facebook,C:\Users\Nadira\Documents\Experiments\visual-evoked-potentials\psychopy_experiments\media/logos/facebook.png,ღონისძიება,0.16,0.7,0.16,0.0,1.0,right,747.24,747.24
2025-10-31T09:00:19.949,278,facebook,C:\Users\Nadira\Documents\Experiments\visual-evoked-potentials\psychopy_experiments\media/logos/facebook.png,ვიდეო,0.16,0.7,0.16,0.0,1.0,right,796.35,796.35
2025-10-31T09:00:22.165,279,facebook,C:\Users\Nadira\Documents\Experiments\visual-evoked-potentials\psychopy_experiments\media/logos/facebook.png,ტყუილი,0.16,0.7,0.16,0.0,1.0,right,846.79,846.79
2025-10-31T09:00:24.395,280,youtube,C:\Users\Nadira\Documents\Experiments\visual-evoked-potentials\psychopy_experiments\media/logos/youtube.png,ფული,0.16,0.7,0.16,0.0,1.0,right,597.35,597.35
2025-10-31T09:00:26.578,281,youtube,C:\Users\Nadira\Documents\Experiments\visual-evoked-potentials\psychopy_experiments\media/logos/youtube.png,ფული,0.16,0.7,0.16,0.0,1.0,right,533.52,533.52
2025-10-31T09:00:28.793,282,youtube,C:\Users\Nadira\Documents\Experiments\visual-evoked-potentials\psychopy_experiments\media/logos/youtube.png,ცისარტყელა,0.16,0.7,0.16,0.0,1.0,left,713.26,713.26
2025-10-31T09:00:31.007,283,youtube,C:\Users\Nadira\Documents\Experiments\visual-evoked-potentials\psychopy_experiments\media/logos/youtube.png,რეალობა,0.16,0.7,0.16,0.0,1.0,,,
2025-10-31T09:00:33.205,284,youtube,C:\Users\Nadira\Documents\Experiments\visual-evoked-potentials\psychopy_experiments\media/logos/youtube.png,ვიდეო,0.16,0.7,0.16,0.0,1.0,right,680.68,680.68
2025-10-31T09:00:35.421,285,facebook,C:\Users\Nadira\Documents\Experiments\visual-evoked-potentials\psychopy_experiments\media/logos/facebook.png,თვალთვალი,0.16,0.7,0.16,0.0,1.0,right,647.32,647.32
2025-10-31T09:00:37.651,286,facebook,C:\Users\Nadira\Documents\Experiments\visual-evoked-potentials\psychopy_experiments\media/logos/facebook.png,ჩელენჯი,0.16,0.7,0.16,0.0,1.0,right,496.97,496.97
2025-10-31T09:00:39.882,287,youtube,C:\Users\Nadira\Documents\Experiments\visual-evoked-potentials\psychopy_experiments\media/logos/youtube.png,ოკეანე,0.16,0.7,0.16,0.0,1.0,left,547.45,547.45
2025-10-31T09:00:42.082,288,youtube,C:\Users\Nadira\Documents\Experiments\visual-evoked-potentials\psychopy_experiments\media/logos/youtube.png,ბალიში,0.16,0.7,0.16,0.0,1.0,left,746.33,746.33
2025-10-31T09:00:44.311,289,youtube,C:\Users\Nadira\Documents\Experiments\visual-evoked-potentials\psychopy_experiments\media/logos/youtube.png,ცისარტყელა,0.16,0.7,0.16,0.0,1.0,,,
2025-10-31T09:00:46.510,290,facebook,C:\Users\Nadira\Documents\Experiments\visual-evoked-potentials\psychopy_experiments\media/logos/facebook.png,ჩენელი,0.16,0.7,0.16,0.0,1.0,right,696.33,696.33
2025-10-31T09:00:48.725,291,facebook,C:\Users\Nadira\Documents\Experiments\visual-evoked-potentials\psychopy_experiments\media/logos/facebook.png,ტუტორიალი,0.16,0.7,0.16,0.0,1.0,right,745.29,745.29
2025-10-31T09:00:50.938,292,facebook,C:\Users\Nadira\Documents\Experiments\visual-evoked-potentials\psychopy_experiments\media/logos/facebook.png,ფული,0.16,0.7,0.16,0.0,1.0,left,880.29,880.29
2025-10-31T09:00:53.154,293,youtube,C:\Users\Nadira\Documents\Experiments\visual-evoked-potentials\psychopy_experiments\media/logos/youtube.png,ბურთი,0.16,0.7,0.16,0.0,1.0,left,662.75,662.75
2025-10-31T09:00:55.369,294,facebook,C:\Users\Nadira\Documents\Experiments\visual-evoked-potentials\psychopy_experiments\media/logos/facebook.png,ბურთი,0.16,0.7,0.16,0.0,1.0,left,534.23,534.23
2025-10-31T09:00:57.568,295,youtube,C:\Users\Nadira\Documents\Experiments\visual-evoked-potentials\psychopy_experiments\media/logos/youtube.png,ინგეიჯმენთი,0.16,0.7,0.16,0.0,1.0,right,780.69,780.69
2025-10-31T09:00:59.781,296,facebook,C:\Users\Nadira\Documents\Experiments\visual-evoked-potentials\psychopy_experiments\media/logos/facebook.png,დრო,0.16,0.7,0.16,0.0,1.0,right,696.01,696.01
2025-10-31T09:01:01.996,297,facebook,C:\Users\Nadira\Documents\Experiments\visual-evoked-potentials\psychopy_experiments\media/logos/facebook.png,ბურთი,0.16,0.7,0.16,0.0,1.0,right,480.52,480.52
2025-10-31T09:01:04.212,298,youtube,C:\Users\Nadira\Documents\Experiments\visual-evoked-potentials\psychopy_experiments\media/logos/youtube.png,ამბები,0.16,0.7,0.16,0.0,1.0,,,
2025-10-31T09:01:06.442,299,youtube,C:\Users\Nadira\Documents\Experiments\visual-evoked-potentials\psychopy_experiments\media/logos/youtube.png,სწავლა,0.16,0.7,0.16,0.0,1.0,right,765.2,765.2
2025-10-31T09:01:08.657,300,youtube,C:\Users\Nadira\Documents\Experiments\visual-evoked-potentials\psychopy_experiments\media/logos/youtube.png,ჩენელი,0.16,0.7,0.16,0.0,1.0,right,662.78,662.78
2025-10-31T09:01:10.871,301,facebook,C:\Users\Nadira\Documents\Experiments\visual-evoked-potentials\psychopy_experiments\media/logos/facebook.png,ჯგუფი,0.16,0.7,0.16,0.0,1.0,right,613.92,613.92
2025-10-31T09:01:13.086,302,youtube,C:\Users\Nadira\Documents\Experiments\visual-evoked-potentials\psychopy_experiments\media/logos/youtube.png,ქრიეთორი,0.16,0.7,0.16,0.0,1.0,right,729.11,729.11
2025-10-31T09:01:15.318,303,facebook,C:\Users\Nadira\Documents\Experiments\visual-evoked-potentials\psychopy_experiments\media/logos/facebook.png,პოსტი,0.16,0.7,0.16,0.0,1.0,right,645.35,645.35
2025-10-31T09:01:17.532,304,facebook,C:\Users\Nadira\Documents\Experiments\visual-evoked-potentials\psychopy_experiments\media/logos/facebook.png,სწავლა,0.16,0.7,0.16,0.0,1.0,left,763.36,763.36
2025-10-31T09:01:19.748,305,facebook,C:\Users\Nadira\Documents\Experiments\visual-evoked-potentials\psychopy_experiments\media/logos/facebook.png,მესიჯი,0.16,0.7,0.16,0.0,1.0,right,963.24,963.24
2025-10-31T09:01:21.945,306,facebook,C:\Users\Nadira\Documents\Experiments\visual-evoked-potentials\psychopy_experiments\media/logos/facebook.png,გართობა,0.16,0.7,0.16,0.0,1.0,right,864.03,864.03
2025-10-31T09:01:24.160,307,facebook,C:\Users\Nadira\Documents\Experiments\visual-evoked-potentials\psychopy_experiments\media/logos/facebook.png,ღონისძიება,0.16,0.7,0.16,0.0,1.0,right,695.5,695.5
2025-10-31T09:01:26.391,308,youtube,C:\Users\Nadira\Documents\Experiments\visual-evoked-potentials\psychopy_experiments\media/logos/youtube.png,მესიჯი,0.16,0.7,0.16,0.0,1.0,right,596.49,596.49
2025-10-31T09:01:28.605,309,youtube,C:\Users\Nadira\Documents\Experiments\visual-evoked-potentials\psychopy_experiments\media/logos/youtube.png,ოკეანე,0.16,0.7,0.16,0.0,1.0,right,64.51,64.51
2025-10-31T09:01:30.821,310,facebook,C:\Users\Nadira\Documents\Experiments\visual-evoked-potentials\psychopy_experiments\media/logos/facebook.png,ქრიეთორი,0.16,0.7,0.16,0.0,1.0,right,831.03,831.03
2025-10-31T09:01:33.035,311,youtube,C:\Users\Nadira\Documents\Experiments\visual-evoked-potentials\psychopy_experiments\media/logos/youtube.png,პეპელა,0.16,0.7,0.16,0.0,1.0,left,546.18,546.18
2025-10-31T09:01:35.250,312,youtube,C:\Users\Nadira\Documents\Experiments\visual-evoked-potentials\psychopy_experiments\media/logos/youtube.png,საზოგადოება,0.16,0.7,0.16,0.0,1.0,right,879.22,879.22
2025-10-31T09:01:37.449,313,facebook,C:\Users\Nadira\Documents\Experiments\visual-evoked-potentials\psychopy_experiments\media/logos/facebook.png,ტუტორიალი,0.16,0.7,0.16,0.0,1.0,right,730.96,730.96
2025-10-31T09:01:39.662,314,facebook,C:\Users\Nadira\Documents\Experiments\visual-evoked-potentials\psychopy_experiments\media/logos/facebook.png,რეაქცია,0.16,0.7,0.16,0.0,1.0,right,780.61,780.61
2025-10-31T09:01:41.878,315,facebook,C:\Users\Nadira\Documents\Experiments\visual-evoked-potentials\psychopy_experiments\media/logos/facebook.png,ინგეიჯმენთი,0.16,0.7,0.16,0.0,1.0,right,796.97,796.97
2025-10-31T09:01:44.093,316,facebook,C:\Users\Nadira\Documents\Experiments\visual-evoked-potentials\psychopy_experiments\media/logos/facebook.png,ტყუილი,0.16,0.7,0.16,0.0,1.0,right,632.64,632.64
2025-10-31T09:01:46.308,317,youtube,C:\Users\Nadira\Documents\Experiments\visual-evoked-potentials\psychopy_experiments\media/logos/youtube.png,ინგეიჯმენთი,0.16,0.7,0.16,0.0,1.0,right,680.57,680.57
2025-10-31T09:01:48.522,318,youtube,C:\Users\Nadira\Documents\Experiments\visual-evoked-potentials\psychopy_experiments\media/logos/youtube.png,ჩელენჯი,0.16,0.7,0.16,0.0,1.0,right,779.68,779.68
2025-10-31T09:01:50.737,319,youtube,C:\Users\Nadira\Documents\Experiments\visual-evoked-potentials\psychopy_experiments\media/logos/youtube.png,გართობა,0.16,0.7,0.16,0.0,1.0,right,928.71,928.71
2025-10-31T09:01:52.954,320,youtube,C:\Users\Nadira\Documents\Experiments\visual-evoked-potentials\psychopy_experiments\media/logos/youtube.png,სტრიმი,0.16,0.7,0.16,0.0,1.0,right,747.34,747.34
2025-10-31T09:01:55.183,321,facebook,C:\Users\Nadira\Documents\Experiments\visual-evoked-potentials\psychopy_experiments\media/logos/facebook.png,ცისარტყელა,0.16,0.7,0.16,0.0,1.0,left,628.41,628.41
2025-10-31T09:01:57.398,322,facebook,C:\Users\Nadira\Documents\Experiments\visual-evoked-potentials\psychopy_experiments\media/logos/facebook.png,მეგობრები,0.16,0.7,0.16,0.0,1.0,right,664.63,664.63
2025-10-31T09:01:59.613,323,youtube,C:\Users\Nadira\Documents\Experiments\visual-evoked-potentials\psychopy_experiments\media/logos/youtube.png,ვიოლინო,0.16,0.7,0.16,0.0,1.0,left,648.3,648.3
2025-10-31T09:02:01.827,324,facebook,C:\Users\Nadira\Documents\Experiments\visual-evoked-potentials\psychopy_experiments\media/logos/facebook.png,მთები,0.16,0.7,0.16,0.0,1.0,left,680.47,680.47
2025-10-31T09:02:04.042,325,youtube,C:\Users\Nadira\Documents\Experiments\visual-evoked-potentials\psychopy_experiments\media/logos/youtube.png,ღონისძიება,0.16,0.7,0.16,0.0,1.0,right,782.06,782.06
2025-10-31T09:02:06.256,326,youtube,C:\Users\Nadira\Documents\Experiments\visual-evoked-potentials\psychopy_experiments\media/logos/youtube.png,სანთელი,0.16,0.7,0.16,0.0,1.0,left,645.84,645.84
2025-10-31T09:02:08.472,327,youtube,C:\Users\Nadira\Documents\Experiments\visual-evoked-potentials\psychopy_experiments\media/logos/youtube.png,თვალთვალი,0.16,0.7,0.16,0.0,1.0,right,763.87,763.87
2025-10-31T09:02:10.671,328,youtube,C:\Users\Nadira\Documents\Experiments\visual-evoked-potentials\psychopy_experiments\media/logos/youtube.png,პოლიტიკა,0.16,0.7,0.16,0.0,1.0,left,694.79,694.79
2025-10-31T09:02:12.884,329,facebook,C:\Users\Nadira\Documents\Experiments\visual-evoked-potentials\psychopy_experiments\media/logos/facebook.png,სანთელი,0.16,0.7,0.16,0.0,1.0,right,695.51,695.51
2025-10-31T09:02:15.099,330,facebook,C:\Users\Nadira\Documents\Experiments\visual-evoked-potentials\psychopy_experiments\media/logos/facebook.png,ავთენტურობა,0.16,0.7,0.16,0.0,1.0,right,745.18,745.18
2025-10-31T09:02:17.330,331,facebook,C:\Users\Nadira\Documents\Experiments\visual-evoked-potentials\psychopy_experiments\media/logos/facebook.png,პროფილი,0.16,0.7,0.16,0.0,1.0,right,995.14,995.14
2025-10-31T09:02:19.545,332,youtube,C:\Users\Nadira\Documents\Experiments\visual-evoked-potentials\psychopy_experiments\media/logos/youtube.png,ფული,0.16,0.7,0.16,0.0,1.0,right,645.39,645.39
2025-10-31T09:02:21.744,333,youtube,C:\Users\Nadira\Documents\Experiments\visual-evoked-potentials\psychopy_experiments\media/logos/youtube.png,დრო,0.16,0.7,0.16,0.0,1.0,right,614.38,614.38
2025-10-31T09:02:23.959,334,facebook,C:\Users\Nadira\Documents\Experiments\visual-evoked-potentials\psychopy_experiments\media/logos/facebook.png,ქრიეთორი,0.16,0.7,0.16,0.0,1.0,left,896.82,896.82
2025-10-31T09:02:26.139,335,facebook,C:\Users\Nadira\Documents\Experiments\visual-evoked-potentials\psychopy_experiments\media/logos/facebook.png,გართობა,0.16,0.7,0.16,0.0,1.0,right,596.54,596.54
2025-10-31T09:02:28.355,336,youtube,C:\Users\Nadira\Documents\Experiments\visual-evoked-potentials\psychopy_experiments\media/logos/youtube.png,ვიდეო,0.16,0.7,0.16,0.0,1.0,right,549.33,549.33
2025-10-31T09:02:30.570,337,facebook,C:\Users\Nadira\Documents\Experiments\visual-evoked-potentials\psychopy_experiments\media/logos/facebook.png,ამბები,0.16,0.7,0.16,0.0,1.0,right,613.47,613.47
2025-10-31T09:02:32.783,338,facebook,C:\Users\Nadira\Documents\Experiments\visual-evoked-potentials\psychopy_experiments\media/logos/facebook.png,პეპელა,0.16,0.7,0.16,0.0,1.0,left,561.34,561.34
2025-10-31T09:02:34.998,339,facebook,C:\Users\Nadira\Documents\Experiments\visual-evoked-potentials\psychopy_experiments\media/logos/facebook.png,პროფილი,0.16,0.7,0.16,0.0,1.0,right,712.49,712.49
2025-10-31T09:02:37.213,340,facebook,C:\Users\Nadira\Documents\Experiments\visual-evoked-potentials\psychopy_experiments\media/logos/facebook.png,ალგორითმი,0.16,0.7,0.16,0.0,1.0,right,680.04,680.04
2025-10-31T09:02:39.411,341,facebook,C:\Users\Nadira\Documents\Experiments\visual-evoked-potentials\psychopy_experiments\media/logos/facebook.png,პეპელა,0.16,0.7,0.16,0.0,1.0,right,728.96,728.96
2025-10-31T09:02:41.626,342,facebook,C:\Users\Nadira\Documents\Experiments\visual-evoked-potentials\psychopy_experiments\media/logos/facebook.png,რეალობა,0.16,0.7,0.16,0.0,1.0,left,796.41,796.41
2025-10-31T09:02:43.840,343,youtube,C:\Users\Nadira\Documents\Experiments\visual-evoked-potentials\psychopy_experiments\media/logos/youtube.png,ჯგუფი,0.16,0.7,0.16,0.0,1.0,right,730.47,730.47
2025-10-31T09:02:46.105,344,facebook,C:\Users\Nadira\Documents\Experiments\visual-evoked-potentials\psychopy_experiments\media/logos/facebook.png,ალგორითმი,0.16,0.7,0.16,0.0,1.0,right,673.82,673.82
2025-10-31T09:02:48.287,345,facebook,C:\Users\Nadira\Documents\Experiments\visual-evoked-potentials\psychopy_experiments\media/logos/facebook.png,მესიჯი,0.16,0.7,0.16,0.0,1.0,right,647.28,647.28
2025-10-31T09:02:50.501,346,youtube,C:\Users\Nadira\Documents\Experiments\visual-evoked-potentials\psychopy_experiments\media/logos/youtube.png,თვალთვალი,0.16,0.7,0.16,0.0,1.0,right,663.55,663.55
2025-10-31T09:02:52.702,347,youtube,C:\Users\Nadira\Documents\Experiments\visual-evoked-potentials\psychopy_experiments\media/logos/youtube.png,ტუტორიალი,0.16,0.7,0.16,0.0,1.0,right,897.37,897.37
2025-10-31T09:02:54.914,348,facebook,C:\Users\Nadira\Documents\Experiments\visual-evoked-potentials\psychopy_experiments\media/logos/facebook.png,პოსტი,0.16,0.7,0.16,0.0,1.0,right,661.65,661.65
2025-10-31T09:02:57.130,349,facebook,C:\Users\Nadira\Documents\Experiments\visual-evoked-potentials\psychopy_experiments\media/logos/facebook.png,ღონისძიება,0.16,0.7,0.16,0.0,1.0,right,962.9,962.9
2025-10-31T09:02:59.344,350,facebook,C:\Users\Nadira\Documents\Experiments\visual-evoked-potentials\psychopy_experiments\media/logos/facebook.png,ბალიში,0.16,0.7,0.16,0.0,1.0,left,613.51,613.51
2025-10-31T09:03:01.558,351,facebook,C:\Users\Nadira\Documents\Experiments\visual-evoked-potentials\psychopy_experiments\media/logos/facebook.png,ჯგუფი,0.16,0.7,0.16,0.0,1.0,right,745.58,745.58
2025-10-31T09:03:03.773,352,youtube,C:\Users\Nadira\Documents\Experiments\visual-evoked-potentials\psychopy_experiments\media/logos/youtube.png,ჩენელი,0.16,0.7,0.16,0.0,1.0,right,697.63,697.63
2025-10-31T09:03:05.988,353,youtube,C:\Users\Nadira\Documents\Experiments\visual-evoked-potentials\psychopy_experiments\media/logos/youtube.png,პოსტი,0.16,0.7,0.16,0.0,1.0,left,860.88,860.88
2025-10-31T09:03:08.186,354,facebook,C:\Users\Nadira\Documents\Experiments\visual-evoked-potentials\psychopy_experiments\media/logos/facebook.png,სწავლა,0.16,0.7,0.16,0.0,1.0,,,
2025-10-31T09:03:10.400,355,facebook,C:\Users\Nadira\Documents\Experiments\visual-evoked-potentials\psychopy_experiments\media/logos/facebook.png,მეგობრები,0.16,0.7,0.16,0.0,1.0,,,
2025-10-31T09:03:12.598,356,facebook,C:\Users\Nadira\Documents\Experiments\visual-evoked-potentials\psychopy_experiments\media/logos/facebook.png,ნოსტალგია,0.16,0.7,0.16,0.0,1.0,right,747.49,747.49
2025-10-31T09:03:14.813,357,youtube,C:\Users\Nadira\Documents\Experiments\visual-evoked-potentials\psychopy_experiments\media/logos/youtube.png,მეგობრები,0.16,0.7,0.16,0.0,1.0,right,631.29,631.29
2025-10-31T09:03:17.028,358,facebook,C:\Users\Nadira\Documents\Experiments\visual-evoked-potentials\psychopy_experiments\media/logos/facebook.png,ვიდეო,0.16,0.7,0.16,0.0,1.0,left,681.28,681.28
2025-10-31T09:03:19.226,359,youtube,C:\Users\Nadira\Documents\Experiments\visual-evoked-potentials\psychopy_experiments\media/logos/youtube.png,ნოსტალგია,0.16,0.7,0.16,0.0,1.0,right,663.19,663.19
2025-10-31T09:03:21.441,360,facebook,C:\Users\Nadira\Documents\Experiments\visual-evoked-potentials\psychopy_experiments\media/logos/facebook.png,ცისარტყელა,0.16,0.7,0.16,0.0,1.0,left,780.17,780.17
2025-10-31T09:03:23.656,361,facebook,C:\Users\Nadira\Documents\Experiments\visual-evoked-potentials\psychopy_experiments\media/logos/facebook.png,რეალობა,0.16,0.7,0.16,0.0,1.0,,,
2025-10-31T09:03:25.871,362,facebook,C:\Users\Nadira\Documents\Experiments\visual-evoked-potentials\psychopy_experiments\media/logos/facebook.png,მთები,0.16,0.7,0.16,0.0,1.0,left,648.16,648.16
2025-10-31T09:03:28.069,363,facebook,C:\Users\Nadira\Documents\Experiments\visual-evoked-potentials\psychopy_experiments\media/logos/facebook.png,ტუტორიალი,0.16,0.7,0.16,0.0,1.0,right,846.08,846.08
2025-10-31T09:03:30.268,364,facebook,C:\Users\Nadira\Documents\Experiments\visual-evoked-potentials\psychopy_experiments\media/logos/facebook.png,ბურთი,0.16,0.7,0.16,0.0,1.0,left,632.32,632.32
2025-10-31T09:03:32.498,365,youtube,C:\Users\Nadira\Documents\Experiments\visual-evoked-potentials\psychopy_experiments\media/logos/youtube.png,ინგეიჯმენთი,0.16,0.7,0.16,0.0,1.0,right,896.74,896.74
2025-10-31T09:03:34.729,366,facebook,C:\Users\Nadira\Documents\Experiments\visual-evoked-potentials\psychopy_experiments\media/logos/facebook.png,ოკეანე,0.16,0.7,0.16,0.0,1.0,left,647.45,647.45
2025-10-31T09:03:36.944,367,facebook,C:\Users\Nadira\Documents\Experiments\visual-evoked-potentials\psychopy_experiments\media/logos/facebook.png,აგური,0.16,0.7,0.16,0.0,1.0,left,596.19,596.19
2025-10-31T09:03:39.159,368,youtube,C:\Users\Nadira\Documents\Experiments\visual-evoked-potentials\psychopy_experiments\media/logos/youtube.png,ცისარტყელა,0.16,0.7,0.16,0.0,1.0,left,729.0,729.0
2025-10-31T09:03:41.373,369,youtube,C:\Users\Nadira\Documents\Experiments\visual-evoked-potentials\psychopy_experiments\media/logos/youtube.png,ავთენტურობა,0.16,0.7,0.16,0.0,1.0,left,814.82,814.82
2025-10-31T09:03:43.589,370,facebook,C:\Users\Nadira\Documents\Experiments\visual-evoked-potentials\psychopy_experiments\media/logos/facebook.png,დრო,0.16,0.7,0.16,0.0,1.0,right,613.57,613.57
2025-10-31T09:03:45.821,371,youtube,C:\Users\Nadira\Documents\Experiments\visual-evoked-potentials\psychopy_experiments\media/logos/youtube.png,ქრიეთორი,0.16,0.7,0.16,0.0,1.0,right,730.62,730.62
2025-10-31T09:03:48.052,372,facebook,C:\Users\Nadira\Documents\Experiments\visual-evoked-potentials\psychopy_experiments\media/logos/facebook.png,ოკეანე,0.16,0.7,0.16,0.0,1.0,left,481.01,481.01
2025-10-31T09:03:50.267,373,youtube,C:\Users\Nadira\Documents\Experiments\visual-evoked-potentials\psychopy_experiments\media/logos/youtube.png,დრო,0.16,0.7,0.16,0.0,1.0,right,663.49,663.49
2025-10-31T09:03:52.498,374,facebook,C:\Users\Nadira\Documents\Experiments\visual-evoked-potentials\psychopy_experiments\media/logos/facebook.png,ბურთი,0.16,0.7,0.16,0.0,1.0,left,531.4,531.4
2025-10-31T09:03:54.696,375,facebook,C:\Users\Nadira\Documents\Experiments\visual-evoked-potentials\psychopy_experiments\media/logos/facebook.png,ტყუილი,0.16,0.7,0.16,0.0,1.0,right,696.32,696.32
2025-10-31T09:03:56.877,376,facebook,C:\Users\Nadira\Documents\Experiments\visual-evoked-potentials\psychopy_experiments\media/logos/facebook.png,ნოსტალგია,0.16,0.7,0.16,0.0,1.0,,,
2025-10-31T09:03:59.093,377,youtube,C:\Users\Nadira\Documents\Experiments\visual-evoked-potentials\psychopy_experiments\media/logos/youtube.png,წიგნი,0.16,0.7,0.16,0.0,1.0,left,595.98,595.98
2025-10-31T09:04:01.306,378,youtube,C:\Users\Nadira\Documents\Experiments\visual-evoked-potentials\psychopy_experiments\media/logos/youtube.png,მეგობრები,0.16,0.7,0.16,0.0,1.0,right,930.23,930.23
2025-10-31T09:04:03.523,379,youtube,C:\Users\Nadira\Documents\Experiments\visual-evoked-potentials\psychopy_experiments\media/logos/youtube.png,თვალთვალი,0.16,0.7,0.16,0.0,1.0,right,748.72,748.72
2025-10-31T09:04:05.720,380,facebook,C:\Users\Nadira\Documents\Experiments\visual-evoked-potentials\psychopy_experiments\media/logos/facebook.png,რეაქცია,0.16,0.7,0.16,0.0,1.0,right,828.85,828.85
2025-10-31T09:04:07.951,381,youtube,C:\Users\Nadira\Documents\Experiments\visual-evoked-potentials\psychopy_experiments\media/logos/youtube.png,საზოგადოება,0.16,0.7,0.16,0.0,1.0,right,796.51,796.51
2025-10-31T09:04:10.148,382,youtube,C:\Users\Nadira\Documents\Experiments\visual-evoked-potentials\psychopy_experiments\media/logos/youtube.png,ტყუილი,0.16,0.7,0.16,0.0,1.0,left,697.48,697.48
2025-10-31T09:04:12.363,383,youtube,C:\Users\Nadira\Documents\Experiments\visual-evoked-potentials\psychopy_experiments\media/logos/youtube.png,მთები,0.16,0.7,0.16,0.0,1.0,left,846.44,846.44
2025-10-31T09:04:14.578,384,youtube,C:\Users\Nadira\Documents\Experiments\visual-evoked-potentials\psychopy_experiments\media/logos/youtube.png,მეგობრები,0.16,0.7,0.16,0.0,1.0,left,646.78,646.78
2025-10-31T09:04:16.793,385,youtube,C:\Users\Nadira\Documents\Experiments\visual-evoked-potentials\psychopy_experiments\media/logos/youtube.png,ტყუილი,0.16,0.7,0.16,0.0,1.0,left,526.68,526.68
2025-10-31T09:04:18.990,386,youtube,C:\Users\Nadira\Documents\Experiments\visual-evoked-potentials\psychopy_experiments\media/logos/youtube.png,კონტენტი,0.16,0.7,0.16,0.0,1.0,right,715.36,715.36
2025-10-31T09:04:21.205,387,facebook,C:\Users\Nadira\Documents\Experiments\visual-evoked-potentials\psychopy_experiments\media/logos/facebook.png,პოსტი,0.16,0.7,0.16,0.0,1.0,right,695.58,695.58
2025-10-31T09:04:23.404,388,youtube,C:\Users\Nadira\Documents\Experiments\visual-evoked-potentials\psychopy_experiments\media/logos/youtube.png,ამბები,0.16,0.7,0.16,0.0,1.0,right,698.87,698.87
2025-10-31T09:04:25.602,389,facebook,C:\Users\Nadira\Documents\Experiments\visual-evoked-potentials\psychopy_experiments\media/logos/facebook.png,ამბები,0.16,0.7,0.16,0.0,1.0,right,564.17,564.17
2025-10-31T09:04:27.799,390,youtube,C:\Users\Nadira\Documents\Experiments\visual-evoked-potentials\psychopy_experiments\media/logos/youtube.png,ბალიში,0.16,0.7,0.16,0.0,1.0,left,698.08,698.08
2025-10-31T09:04:30.014,391,youtube,C:\Users\Nadira\Documents\Experiments\visual-evoked-potentials\psychopy_experiments\media/logos/youtube.png,კომენტარები,0.16,0.7,0.16,0.0,1.0,right,897.05,897.05
2025-10-31T09:04:32.213,392,youtube,C:\Users\Nadira\Documents\Experiments\visual-evoked-potentials\psychopy_experiments\media/logos/youtube.png,სანთელი,0.16,0.7,0.16,0.0,1.0,left,596.62,596.62
2025-10-31T09:04:34.427,393,youtube,C:\Users\Nadira\Documents\Experiments\visual-evoked-potentials\psychopy_experiments\media/logos/youtube.png,მესიჯი,0.16,0.7,0.16,0.0,1.0,right,564.21,564.21
2025-10-31T09:04:36.642,394,youtube,C:\Users\Nadira\Documents\Experiments\visual-evoked-potentials\psychopy_experiments\media/logos/youtube.png,ცისარტყელა,0.16,0.7,0.16,0.0,1.0,left,545.69,545.69
2025-10-31T09:04:38.841,395,facebook,C:\Users\Nadira\Documents\Experiments\visual-evoked-potentials\psychopy_experiments\media/logos/facebook.png,ვიოლინო,0.16,0.7,0.16,0.0,1.0,right,613.28,613.28
2025-10-31T09:04:41.072,396,facebook,C:\Users\Nadira\Documents\Experiments\visual-evoked-potentials\psychopy_experiments\media/logos/facebook.png,ჩელენჯი,0.16,0.7,0.16,0.0,1.0,right,796.11,796.11
2025-10-31T09:04:43.303,397,youtube,C:\Users\Nadira\Documents\Experiments\visual-evoked-potentials\psychopy_experiments\media/logos/youtube.png,პოსტი,0.16,0.7,0.16,0.0,1.0,right,680.17,680.17
2025-10-31T09:04:45.517,398,facebook,C:\Users\Nadira\Documents\Experiments\visual-evoked-potentials\psychopy_experiments\media/logos/facebook.png,ჩენელი,0.16,0.7,0.16,0.0,1.0,right,748.03,748.03
2025-10-31T09:04:47.732,399,facebook,C:\Users\Nadira\Documents\Experiments\visual-evoked-potentials\psychopy_experiments\media/logos/facebook.png,ავთენტურობა,0.16,0.7,0.16,0.0,1.0,left,846.32,846.32
