timestamp_iso,global_trial,block,trial_in_block,stimulus,center_dir,congruent,correct_key,resp_key,correct,rt_ms,stim_time_s,isi_s
2025-10-03T07:07:55.864,1,1,1,>>>>>,>,1,rshift,lshift,0,716.07,0.2,1.332
2025-10-03T07:07:57.761,2,1,2,<<><<,>,0,rshift,lshift,0,599.58,0.2,1.282
2025-10-03T07:07:59.860,3,1,3,>><>>,<,0,lshift,lshift,1,697.81,0.2,1.207
2025-10-03T07:08:01.674,4,1,4,>><>>,<,0,lshift,lshift,1,582.04,0.2,1.225
2025-10-03T07:08:03.790,5,1,5,>>>>>,>,1,rshift,lshift,0,849.35,0.2,1.274
2025-10-03T07:08:05.674,6,1,6,>>>>>,>,1,rshift,lshift,0,568.0,0.2,1.379
2025-10-03T07:08:07.722,7,1,7,>>>>>,>,1,rshift,lshift,0,633.68,0.2,1.334
2025-10-03T07:08:09.670,8,1,8,>><>>,<,0,lshift,lshift,1,584.91,0.2,1.223
2025-10-03T07:08:11.384,9,1,9,>>>>>,>,1,rshift,lshift,0,449.87,0.2,1.317
2025-10-03T07:08:13.266,10,1,10,<<<<<,<,1,lshift,lshift,1,551.56,0.2,1.308
2025-10-03T07:08:14.996,11,1,11,>>>>>,>,1,rshift,lshift,0,366.13,0.2,1.339
2025-10-03T07:08:16.796,12,1,12,>>>>>,>,1,rshift,lshift,0,448.6,0.2,1.317
2025-10-03T07:08:18.577,13,1,13,>>>>>,>,1,rshift,lshift,0,384.24,0.2,1.294
2025-10-03T07:08:20.425,14,1,14,<<<<<,<,1,lshift,lshift,1,516.13,0.2,1.388
2025-10-03T07:08:22.256,15,1,15,>><>>,<,0,lshift,lshift,1,466.32,0.2,1.217
2025-10-03T07:08:24.007,16,1,16,>><>>,<,0,lshift,lshift,1,451.06,0.2,1.359
2025-10-03T07:08:25.770,17,1,17,>>>>>,>,1,rshift,lshift,0,399.44,0.2,1.358
2025-10-03T07:08:27.552,18,1,18,>>>>>,>,1,rshift,lshift,0,415.84,0.2,1.232
2025-10-03T07:08:29.253,19,1,19,<<<<<,<,1,lshift,lshift,1,417.41,0.2,1.274
2025-10-03T07:08:31.132,20,1,20,<<><<,>,0,rshift,lshift,0,482.02,0.2,1.244
2025-10-03T07:08:32.930,21,1,21,>><>>,<,0,lshift,lshift,1,466.52,0.2,1.267
2025-10-03T07:08:34.696,22,1,22,<<<<<,<,1,lshift,lshift,1,366.28,0.2,1.306
2025-10-03T07:08:36.477,23,1,23,>>>>>,>,1,rshift,lshift,0,396.69,0.2,1.236
2025-10-03T07:08:38.193,24,1,24,>><>>,<,0,lshift,lshift,1,464.9,0.2,1.242
2025-10-03T07:08:39.908,25,1,25,>><>>,<,0,lshift,lshift,1,450.14,0.2,1.349
2025-10-03T07:08:41.708,26,1,26,<<><<,>,0,rshift,lshift,0,467.65,0.2,1.204
2025-10-03T07:08:43.523,27,1,27,<<><<,>,0,rshift,lshift,0,551.35,0.2,1.24
2025-10-03T07:08:45.436,28,1,28,>><>>,<,0,lshift,lshift,1,515.75,0.2,1.205
2025-10-03T07:08:47.184,29,1,29,<<<<<,<,1,lshift,lshift,1,382.75,0.2,1.314
2025-10-03T07:08:49.083,30,1,30,<<><<,>,0,rshift,lshift,0,498.86,0.2,1.373
2025-10-03T07:08:50.898,31,1,31,>><>>,<,0,lshift,lshift,1,499.4,0.2,1.306
2025-10-03T07:08:52.899,32,1,32,<<<<<,<,1,lshift,lshift,1,733.64,0.2,1.272
2025-10-03T07:08:54.695,33,1,33,<<<<<,<,1,lshift,lshift,1,400.08,0.2,1.377
2025-10-03T07:08:56.478,34,1,34,<<><<,>,0,rshift,lshift,0,551.24,0.2,1.329
2025-10-03T07:08:58.242,35,1,35,>><>>,<,0,lshift,lshift,1,483.1,0.2,1.327
2025-10-03T07:09:00.108,36,1,36,<<><<,>,0,rshift,lshift,0,517.0,0.2,1.399
2025-10-03T07:09:01.905,37,1,37,>>>>>,>,1,rshift,lshift,0,399.76,0.2,1.329
2025-10-03T07:09:03.721,38,1,38,<<<<<,<,1,lshift,lshift,1,415.53,0.2,1.298
2025-10-03T07:09:05.502,39,1,39,<<><<,>,0,rshift,lshift,0,516.38,0.2,1.361
2025-10-03T07:09:07.369,40,1,40,<<><<,>,0,rshift,lshift,0,517.55,0.2,1.336
2025-10-03T07:09:09.283,41,1,41,<<<<<,<,1,lshift,lshift,1,482.89,0.2,1.272
2025-10-03T07:09:10.998,42,1,42,>>>>>,>,1,rshift,lshift,0,465.79,0.2,1.25
2025-10-03T07:09:12.779,43,1,43,<<><<,>,0,rshift,lshift,0,548.18,0.2,1.252
2025-10-03T07:09:14.678,44,1,44,>><>>,<,0,lshift,lshift,1,516.65,0.2,1.221
2025-10-03T07:09:16.526,45,1,45,<<><<,>,0,rshift,lshift,0,515.85,0.2,1.219
2025-10-03T07:09:18.341,46,1,46,<<><<,>,0,rshift,lshift,0,549.3,0.2,1.345
2025-10-03T07:09:20.091,47,1,47,<<><<,>,0,rshift,lshift,0,484.85,0.2,1.364
2025-10-03T07:09:21.855,48,1,48,<<<<<,<,1,lshift,lshift,1,531.3,0.2,1.319
2025-10-03T07:09:23.721,49,1,49,<<<<<,<,1,lshift,lshift,1,516.74,0.2,1.21
2025-10-03T07:09:25.569,50,1,50,<<<<<,<,1,lshift,lshift,1,517.37,0.2,1.248
2025-10-03T07:09:59.406,51,2,1,<<<<<,<,1,lshift,lshift,1,547.84,0.2,1.204
2025-10-03T07:10:01.354,52,2,2,<<><<,>,0,rshift,lshift,0,582.94,0.2,1.23
2025-10-03T07:10:03.468,53,2,3,<<><<,>,0,rshift,lshift,0,781.2,0.2,1.371
2025-10-03T07:10:05.286,54,2,4,>><>>,<,0,lshift,lshift,1,485.19,0.2,1.29
2025-10-03T07:10:07.148,55,2,5,<<><<,>,0,rshift,lshift,0,465.94,0.2,1.367
2025-10-03T07:10:09.032,56,2,6,<<><<,>,0,rshift,lshift,0,484.99,0.2,1.231
2025-10-03T07:10:10.797,57,2,7,>>>>>,>,1,rshift,lshift,0,399.78,0.2,1.286
2025-10-03T07:10:12.561,58,2,8,<<<<<,<,1,lshift,lshift,1,383.72,0.2,1.353
2025-10-03T07:10:14.311,59,2,9,<<<<<,<,1,lshift,lshift,1,367.43,0.2,1.325
2025-10-03T07:10:16.175,60,2,10,>><>>,<,0,lshift,lshift,1,467.23,0.2,1.279
2025-10-03T07:10:17.941,61,2,11,<<<<<,<,1,lshift,lshift,1,384.65,0.2,1.325
2025-10-03T07:10:19.654,62,2,12,<<<<<,<,1,lshift,lshift,1,398.43,0.2,1.284
2025-10-03T07:10:22.585,63,2,13,>>>>>,>,1,rshift,,0,,0.2,1.303
2025-10-03T07:10:25.549,64,2,14,>>>>>,>,1,rshift,,0,,0.2,1.391
2025-10-03T07:10:28.380,65,2,15,>>>>>,>,1,rshift,,0,,0.2,1.217
2025-10-03T07:10:31.061,66,2,16,<<><<,>,0,rshift,,0,,0.2,1.212
2025-10-03T07:10:33.942,67,2,17,<<<<<,<,1,lshift,,0,,0.2,1.339
2025-10-03T07:10:36.789,68,2,18,<<><<,>,0,rshift,,0,,0.2,1.324
2025-10-03T07:10:39.687,69,2,19,<<<<<,<,1,lshift,,0,,0.2,1.265
2025-10-03T07:10:42.635,70,2,20,>><>>,<,0,lshift,,0,,0.2,1.317
2025-10-03T07:10:44.483,71,2,21,<<<<<,<,1,lshift,lshift,1,516.37,0.2,1.395
2025-10-03T07:10:46.331,72,2,22,>>>>>,>,1,rshift,lshift,0,450.11,0.2,1.234
2025-10-03T07:10:48.331,73,2,23,<<><<,>,0,rshift,lshift,0,583.43,0.2,1.223
2025-10-03T07:10:50.294,74,2,24,>><>>,<,0,lshift,lshift,1,547.49,0.2,1.38
2025-10-03T07:10:52.078,75,2,25,<<<<<,<,1,lshift,lshift,1,500.86,0.2,1.333
2025-10-03T07:10:53.909,76,2,26,>><>>,<,0,lshift,lshift,1,567.56,0.2,1.351
2025-10-03T07:10:55.672,77,2,27,<<><<,>,0,rshift,lshift,0,531.81,0.2,1.216
2025-10-03T07:10:57.421,78,2,28,>>>>>,>,1,rshift,lshift,0,400.28,0.2,1.283
2025-10-03T07:10:59.172,79,2,29,>><>>,<,0,lshift,lshift,1,485.18,0.2,1.299
2025-10-03T07:11:00.935,80,2,30,<<<<<,<,1,lshift,lshift,1,516.93,0.2,1.322
2025-10-03T07:11:02.867,81,2,31,>><>>,<,0,lshift,lshift,1,548.0,0.2,1.223
2025-10-03T07:11:04.750,82,2,32,<<><<,>,0,rshift,lshift,0,516.24,0.2,1.378
2025-10-03T07:11:06.547,83,2,33,>>>>>,>,1,rshift,lshift,0,465.65,0.2,1.28
2025-10-03T07:11:08.395,84,2,34,<<><<,>,0,rshift,lshift,0,515.77,0.2,1.296
2025-10-03T07:11:10.394,85,2,35,>>>>>,>,1,rshift,lshift,0,583.09,0.2,1.252
2025-10-03T07:11:12.358,86,2,36,>>>>>,>,1,rshift,lshift,0,599.57,0.2,1.268
2025-10-03T07:11:15.289,87,2,37,<<><<,>,0,rshift,,0,,0.2,1.347
2025-10-03T07:11:18.020,88,2,38,>><>>,<,0,lshift,,0,,0.2,1.208
2025-10-03T07:11:20.835,89,2,39,>>>>>,>,1,rshift,,0,,0.2,1.227
2025-10-03T07:11:23.682,90,2,40,>>>>>,>,1,rshift,,0,,0.2,1.365
2025-10-03T07:11:25.463,91,2,41,<<<<<,<,1,lshift,lshift,1,448.17,0.2,1.306
2025-10-03T07:11:27.278,92,2,42,>>>>>,>,1,rshift,lshift,0,399.5,0.2,1.397
2025-10-03T07:11:28.995,93,2,43,>><>>,<,0,lshift,lshift,1,450.28,0.2,1.274
2025-10-03T07:11:30.792,94,2,44,>><>>,<,0,lshift,lshift,1,449.96,0.2,1.234
2025-10-03T07:11:32.508,95,2,45,>><>>,<,0,lshift,lshift,1,465.69,0.2,1.24
2025-10-03T07:11:34.342,96,2,46,>>>>>,>,1,rshift,lshift,0,450.84,0.2,1.282
2025-10-03T07:11:36.239,97,2,47,>><>>,<,0,lshift,lshift,1,467.51,0.2,1.352
2025-10-03T07:11:38.087,98,2,48,<<><<,>,0,rshift,lshift,0,516.26,0.2,1.202
2025-10-03T07:11:40.019,99,2,49,<<><<,>,0,rshift,lshift,0,517.74,0.2,1.236
2025-10-03T07:11:41.683,100,2,50,<<<<<,<,1,lshift,lshift,1,383.41,0.2,1.276
2025-10-03T07:12:26.410,101,3,1,>><>>,<,0,lshift,lshift,1,549.61,0.2,1.242
2025-10-03T07:12:28.176,102,3,2,<<><<,>,0,rshift,lshift,0,482.72,0.2,1.397
2025-10-03T07:12:29.858,103,3,3,>>>>>,>,1,rshift,lshift,0,416.49,0.2,1.248
2025-10-03T07:12:31.640,104,3,4,>>>>>,>,1,rshift,lshift,0,399.86,0.2,1.251
2025-10-03T07:12:33.472,105,3,5,<<><<,>,0,rshift,lshift,0,500.5,0.2,1.297
2025-10-03T07:12:35.203,106,3,6,>>>>>,>,1,rshift,lshift,0,366.26,0.2,1.375
2025-10-03T07:12:37.085,107,3,7,>><>>,<,0,lshift,lshift,1,481.81,0.2,1.227
2025-10-03T07:12:38.817,108,3,8,<<><<,>,0,rshift,lshift,0,464.97,0.2,1.243
2025-10-03T07:12:40.498,109,3,9,<<<<<,<,1,lshift,lshift,1,383.1,0.2,1.388
2025-10-03T07:12:42.298,110,3,10,<<<<<,<,1,lshift,lshift,1,416.43,0.2,1.235
2025-10-03T07:12:44.145,111,3,11,<<><<,>,0,rshift,lshift,0,449.23,0.2,1.245
2025-10-03T07:12:45.861,112,3,12,<<><<,>,0,rshift,lshift,0,466.23,0.2,1.259
2025-10-03T07:12:47.459,113,3,13,<<<<<,<,1,lshift,lshift,1,365.55,0.2,1.296
2025-10-03T07:12:49.274,114,3,14,>><>>,<,0,lshift,lshift,1,483.48,0.2,1.337
2025-10-03T07:12:50.989,115,3,15,>>>>>,>,1,rshift,lshift,0,348.85,0.2,1.345
2025-10-03T07:12:52.721,116,3,16,<<><<,>,0,rshift,lshift,0,433.3,0.2,1.252
2025-10-03T07:12:54.452,117,3,17,>>>>>,>,1,rshift,lshift,0,416.32,0.2,1.223
2025-10-03T07:12:56.218,118,3,18,<<<<<,<,1,lshift,lshift,1,433.16,0.2,1.251
2025-10-03T07:12:57.883,119,3,19,<<<<<,<,1,lshift,lshift,1,365.69,0.2,1.297
2025-10-03T07:12:59.664,120,3,20,>><>>,<,0,lshift,lshift,1,499.6,0.2,1.359
2025-10-03T07:13:01.548,121,3,21,>><>>,<,0,lshift,lshift,1,482.28,0.2,1.237
2025-10-03T07:13:03.345,122,3,22,>>>>>,>,1,rshift,lshift,0,382.25,0.2,1.291
2025-10-03T07:13:05.076,123,3,23,<<><<,>,0,rshift,lshift,0,316.36,0.2,1.27
2025-10-03T07:13:06.926,124,3,24,>><>>,<,0,lshift,lshift,1,434.49,0.2,1.246
2025-10-03T07:13:08.674,125,3,25,<<><<,>,0,rshift,lshift,0,499.85,0.2,1.374
2025-10-03T07:13:10.423,126,3,26,<<<<<,<,1,lshift,lshift,1,416.29,0.2,1.363
2025-10-03T07:13:12.272,127,3,27,>><>>,<,0,lshift,lshift,1,500.29,0.2,1.313
2025-10-03T07:13:14.035,128,3,28,>>>>>,>,1,rshift,lshift,0,399.12,0.2,1.309
2025-10-03T07:13:15.901,129,3,29,<<><<,>,0,rshift,lshift,0,515.46,0.2,1.338
2025-10-03T07:13:17.766,130,3,30,<<><<,>,0,rshift,lshift,0,531.94,0.2,1.391
2025-10-03T07:13:19.514,131,3,31,>>>>>,>,1,rshift,lshift,0,415.14,0.2,1.244
2025-10-03T07:13:21.430,132,3,32,>><>>,<,0,lshift,lshift,1,534.08,0.2,1.244
2025-10-03T07:13:23.162,133,3,33,<<><<,>,0,rshift,lshift,0,467.46,0.2,1.286
2025-10-03T07:13:24.928,134,3,34,<<<<<,<,1,lshift,lshift,1,400.14,0.2,1.355
2025-10-03T07:13:26.774,135,3,35,>>>>>,>,1,rshift,lshift,0,433.28,0.2,1.357
2025-10-03T07:13:28.641,136,3,36,>>>>>,>,1,rshift,lshift,0,467.82,0.2,1.33
2025-10-03T07:13:30.438,137,3,37,<<><<,>,0,rshift,lshift,0,464.94,0.2,1.257
2025-10-03T07:13:32.254,138,3,38,>><>>,<,0,lshift,lshift,1,451.3,0.2,1.283
2025-10-03T07:13:33.885,139,3,39,<<<<<,<,1,lshift,lshift,1,383.61,0.2,1.248
2025-10-03T07:13:35.550,140,3,40,<<<<<,<,1,lshift,lshift,1,433.33,0.2,1.218
2025-10-03T07:13:37.284,141,3,41,>>>>>,>,1,rshift,lshift,0,452.62,0.2,1.247
2025-10-03T07:13:39.031,142,3,42,>>>>>,>,1,rshift,lshift,0,432.93,0.2,1.32
2025-10-03T07:13:40.864,143,3,43,<<><<,>,0,rshift,lshift,0,517.52,0.2,1.27
2025-10-03T07:13:42.594,144,3,44,<<<<<,<,1,lshift,lshift,1,430.78,0.2,1.251
2025-10-03T07:13:44.359,145,3,45,>>>>>,>,1,rshift,lshift,0,416.45,0.2,1.301
2025-10-03T07:13:46.224,146,3,46,>><>>,<,0,lshift,lshift,1,466.66,0.2,1.359
2025-10-03T07:13:48.030,147,3,47,>><>>,<,0,lshift,lshift,1,523.96,0.2,1.212
2025-10-03T07:13:49.856,148,3,48,>><>>,<,0,lshift,lshift,1,550.76,0.2,1.233
2025-10-03T07:13:51.621,149,3,49,<<<<<,<,1,lshift,lshift,1,433.66,0.2,1.322
2025-10-03T07:13:53.434,150,3,50,<<<<<,<,1,lshift,lshift,1,516.54,0.2,1.311
2025-10-03T07:15:13.049,151,4,1,<<><<,>,0,rshift,lshift,0,597976.51,0.2,1.364
2025-10-03T07:15:14.798,152,4,2,<<<<<,<,1,lshift,lshift,1,467.36,0.2,1.212
2025-10-03T07:15:16.877,153,4,3,>>>>>,>,1,rshift,lshift,0,664.94,0.2,1.289
2025-10-03T07:15:19.611,154,4,4,>><>>,<,0,lshift,,0,,0.2,1.266
2025-10-03T07:15:21.408,155,4,5,>>>>>,>,1,rshift,lshift,0,431.42,0.2,1.382
2025-10-03T07:15:23.289,156,4,6,<<><<,>,0,rshift,lshift,0,632.52,0.2,1.278
2025-10-03T07:15:25.238,157,4,7,<<><<,>,0,rshift,lshift,0,650.8,0.2,1.358
2025-10-03T07:15:28.003,158,4,8,<<<<<,<,1,lshift,,0,,0.2,1.22
2025-10-03T07:15:30.701,159,4,9,<<<<<,<,1,lshift,,0,,0.2,1.234
2025-10-03T07:15:33.565,160,4,10,<<<<<,<,1,lshift,,0,,0.2,1.343
2025-10-03T07:15:35.413,161,4,11,<<><<,>,0,rshift,lshift,0,534.14,0.2,1.205
2025-10-03T07:15:38.226,162,4,12,>><>>,<,0,lshift,,0,,0.2,1.253
2025-10-03T07:15:40.091,163,4,13,<<><<,>,0,rshift,lshift,0,583.01,0.2,1.23
2025-10-03T07:15:42.091,164,4,14,>>>>>,>,1,rshift,lshift,0,699.42,0.2,1.2
2025-10-03T07:15:43.871,165,4,15,<<><<,>,0,rshift,lshift,0,548.53,0.2,1.374
2025-10-03T07:15:45.704,166,4,16,<<><<,>,0,rshift,lshift,0,549.56,0.2,1.306
2025-10-03T07:15:47.653,167,4,17,<<><<,>,0,rshift,lshift,0,567.94,0.2,1.203
2025-10-03T07:15:50.517,168,4,18,<<<<<,<,1,lshift,,0,,0.2,1.249
2025-10-03T07:15:52.330,169,4,19,>><>>,<,0,lshift,lshift,1,448.19,0.2,1.307
2025-10-03T07:15:54.195,170,4,20,>>>>>,>,1,rshift,lshift,0,463.63,0.2,1.345
2025-10-03T07:15:55.994,171,4,21,>>>>>,>,1,rshift,lshift,0,450.1,0.2,1.373
2025-10-03T07:15:58.809,172,4,22,<<<<<,<,1,lshift,,0,,0.2,1.24
2025-10-03T07:16:01.673,173,4,23,<<<<<,<,1,lshift,,0,,0.2,1.265
2025-10-03T07:16:04.536,174,4,24,>><>>,<,0,lshift,,0,,0.2,1.286
2025-10-03T07:16:06.585,175,4,25,>>>>>,>,1,rshift,lshift,0,799.03,0.2,1.263
2025-10-03T07:16:08.568,176,4,26,<<><<,>,0,rshift,lshift,0,634.19,0.2,1.316
2025-10-03T07:16:11.347,177,4,27,>><>>,<,0,lshift,,0,,0.2,1.271
2025-10-03T07:16:14.144,178,4,28,>><>>,<,0,lshift,,0,,0.2,1.293
2025-10-03T07:16:16.027,179,4,29,<<><<,>,0,rshift,lshift,0,516.74,0.2,1.368
2025-10-03T07:16:19.008,180,4,30,>><>>,<,0,lshift,,0,,0.2,1.347
2025-10-03T07:16:20.806,181,4,31,<<><<,>,0,rshift,lshift,0,548.52,0.2,1.316
2025-10-03T07:16:22.639,182,4,32,>>>>>,>,1,rshift,lshift,0,532.7,0.2,1.357
2025-10-03T07:16:25.567,183,4,33,<<<<<,<,1,lshift,,0,,0.2,1.386
2025-10-03T07:16:27.449,184,4,34,<<><<,>,0,rshift,lshift,0,564.96,0.2,1.325
2025-10-03T07:16:29.334,185,4,35,>>>>>,>,1,rshift,lshift,0,469.13,0.2,1.283
2025-10-03T07:16:32.246,186,4,36,>><>>,<,0,lshift,,0,,0.2,1.29
2025-10-03T07:16:35.060,187,4,37,<<<<<,<,1,lshift,,0,,0.2,1.324
2025-10-03T07:16:37.808,188,4,38,>><>>,<,0,lshift,,0,,0.2,1.312
2025-10-03T07:16:40.654,189,4,39,>><>>,<,0,lshift,,0,,0.2,1.249
2025-10-03T07:16:42.403,190,4,40,<<><<,>,0,rshift,lshift,0,516.24,0.2,1.346
2025-10-03T07:16:45.301,191,4,41,>><>>,<,0,lshift,,0,,0.2,1.34
2025-10-03T07:16:47.033,192,4,42,>>>>>,>,1,rshift,lshift,0,416.61,0.2,1.279
2025-10-03T07:16:49.799,193,4,43,<<<<<,<,1,lshift,,0,,0.2,1.232
2025-10-03T07:16:52.460,194,4,44,<<<<<,<,1,lshift,,0,,0.2,1.211
2025-10-03T07:16:54.193,195,4,45,>>>>>,>,1,rshift,lshift,0,416.1,0.2,1.377
2025-10-03T07:16:56.126,196,4,46,>>>>>,>,1,rshift,lshift,0,600.22,0.2,1.344
2025-10-03T07:16:57.956,197,4,47,>>>>>,>,1,rshift,lshift,0,483.1,0.2,1.359
2025-10-03T07:17:00.871,198,4,48,<<<<<,<,1,lshift,,0,,0.2,1.341
2025-10-03T07:17:03.567,199,4,49,>><>>,<,0,lshift,,0,,0.2,1.261
2025-10-03T07:17:05.217,200,4,50,>>>>>,>,1,rshift,lshift,0,316.34,0.2,1.202
