timestamp_iso,trial_index,brand,brand_path,target,prime_time_s,isi_s,target_time_s,cooldown_s,resp_window_s,resp_key,rt_ms_from_target,rt_ms_from_window_open
2025-11-13T07:11:53.309,0,linkedin,C:\Users\Nadira\Documents\Experiments\visual-evoked-potentials\psychopy_experiments\media/logos/linkedin.png,სანთელი,0.16,0.54,0.16,0.0,1.5,left,606.97,606.97
2025-11-13T07:11:55.190,1,linkedin,C:\Users\Nadira\Documents\Experiments\visual-evoked-potentials\psychopy_experiments\media/logos/linkedin.png,მთები,0.16,0.54,0.16,0.0,1.5,left,593.86,593.86
2025-11-13T07:11:57.156,2,linkedin,C:\Users\Nadira\Documents\Experiments\visual-evoked-potentials\psychopy_experiments\media/logos/linkedin.png,სელფი,0.16,0.54,0.16,0.0,1.5,left,662.18,662.18
2025-11-13T07:11:59.220,3,linkedin,C:\Users\Nadira\Documents\Experiments\visual-evoked-potentials\psychopy_experiments\media/logos/linkedin.png,ნეთვორქინგი,0.16,0.54,0.16,0.0,1.5,right,774.95,774.95
2025-11-13T07:12:01.202,4,linkedin,C:\Users\Nadira\Documents\Experiments\visual-evoked-potentials\psychopy_experiments\media/logos/linkedin.png,მოგზაურობა,0.16,0.54,0.16,0.0,1.5,left,693.39,693.39
2025-11-13T07:12:03.250,5,linkedin,C:\Users\Nadira\Documents\Experiments\visual-evoked-potentials\psychopy_experiments\media/logos/linkedin.png,მოგონებები,0.16,0.54,0.16,0.0,1.5,right,762.39,762.39
2025-11-13T07:12:05.183,6,instagram,C:\Users\Nadira\Documents\Experiments\visual-evoked-potentials\psychopy_experiments\media/logos/instagram.png,ცისარტყელა,0.16,0.54,0.16,0.0,1.5,left,592.24,592.24
2025-11-13T07:12:07.230,7,linkedin,C:\Users\Nadira\Documents\Experiments\visual-evoked-potentials\psychopy_experiments\media/logos/linkedin.png,პროფესიონალები,0.16,0.54,0.16,0.0,1.5,right,762.01,762.01
2025-11-13T07:12:09.013,8,instagram,C:\Users\Nadira\Documents\Experiments\visual-evoked-potentials\psychopy_experiments\media/logos/instagram.png,დასაქმება,0.16,0.54,0.16,0.0,1.5,left,510.27,510.27
2025-11-13T07:12:10.911,9,instagram,C:\Users\Nadira\Documents\Experiments\visual-evoked-potentials\psychopy_experiments\media/logos/instagram.png,უნარები,0.16,0.54,0.16,0.0,1.5,left,630.43,630.43
2025-11-13T07:12:12.893,10,linkedin,C:\Users\Nadira\Documents\Experiments\visual-evoked-potentials\psychopy_experiments\media/logos/linkedin.png,პროფესიონალები,0.16,0.54,0.16,0.0,1.5,right,681.17,681.17
2025-11-13T07:12:14.824,11,instagram,C:\Users\Nadira\Documents\Experiments\visual-evoked-potentials\psychopy_experiments\media/logos/instagram.png,სანთელი,0.16,0.54,0.16,0.0,1.5,left,663.9,663.9
2025-11-13T07:12:16.723,12,instagram,C:\Users\Nadira\Documents\Experiments\visual-evoked-potentials\psychopy_experiments\media/logos/instagram.png,ინსპირაცია,0.16,0.54,0.16,0.0,1.5,left,627.67,627.67
2025-11-13T07:12:18.822,13,linkedin,C:\Users\Nadira\Documents\Experiments\visual-evoked-potentials\psychopy_experiments\media/logos/linkedin.png,ესთეტიური,0.16,0.54,0.16,0.0,1.5,right,812.37,812.37
2025-11-13T07:12:20.920,14,linkedin,C:\Users\Nadira\Documents\Experiments\visual-evoked-potentials\psychopy_experiments\media/logos/linkedin.png,შესაძლებლობა,0.16,0.54,0.16,0.0,1.5,right,808.88,808.88
2025-11-13T07:12:22.917,15,linkedin,C:\Users\Nadira\Documents\Experiments\visual-evoked-potentials\psychopy_experiments\media/logos/linkedin.png,პროფესიონალები,0.16,0.54,0.16,0.0,1.5,left,715.3,715.3
2025-11-13T07:12:25.148,16,instagram,C:\Users\Nadira\Documents\Experiments\visual-evoked-potentials\psychopy_experiments\media/logos/instagram.png,ცისარტყელა,0.16,0.54,0.16,0.0,1.5,left,963.4,963.4
2025-11-13T07:12:27.312,17,instagram,C:\Users\Nadira\Documents\Experiments\visual-evoked-potentials\psychopy_experiments\media/logos/instagram.png,ბალიში,0.16,0.54,0.16,0.0,1.5,left,895.13,895.13
2025-11-13T07:12:29.460,18,linkedin,C:\Users\Nadira\Documents\Experiments\visual-evoked-potentials\psychopy_experiments\media/logos/linkedin.png,მოგონებები,0.16,0.54,0.16,0.0,1.5,left,864.43,864.43
2025-11-13T07:12:31.344,19,linkedin,C:\Users\Nadira\Documents\Experiments\visual-evoked-potentials\psychopy_experiments\media/logos/linkedin.png,ბალიში,0.16,0.54,0.16,0.0,1.5,left,596.86,596.86
2025-11-13T07:12:33.324,20,instagram,C:\Users\Nadira\Documents\Experiments\visual-evoked-potentials\psychopy_experiments\media/logos/instagram.png,მოგონებები,0.16,0.54,0.16,0.0,1.5,right,714.13,714.13
2025-11-13T07:12:35.356,21,linkedin,C:\Users\Nadira\Documents\Experiments\visual-evoked-potentials\psychopy_experiments\media/logos/linkedin.png,სელფი,0.16,0.54,0.16,0.0,1.5,left,746.33,746.33
2025-11-13T07:12:37.370,22,instagram,C:\Users\Nadira\Documents\Experiments\visual-evoked-potentials\psychopy_experiments\media/logos/instagram.png,გაზიარება,0.16,0.54,0.16,0.0,1.5,right,748.3,748.3
2025-11-13T07:12:39.435,23,instagram,C:\Users\Nadira\Documents\Experiments\visual-evoked-potentials\psychopy_experiments\media/logos/instagram.png,მოგზაურობა,0.16,0.54,0.16,0.0,1.5,right,795.57,795.57
2025-11-13T07:12:41.484,24,instagram,C:\Users\Nadira\Documents\Experiments\visual-evoked-potentials\psychopy_experiments\media/logos/instagram.png,სანთელი,0.16,0.54,0.16,0.0,1.5,left,780.11,780.11
2025-11-13T07:12:43.383,25,linkedin,C:\Users\Nadira\Documents\Experiments\visual-evoked-potentials\psychopy_experiments\media/logos/linkedin.png,ცისარტყელა,0.16,0.54,0.16,0.0,1.5,left,630.36,630.36
2025-11-13T07:12:45.448,26,instagram,C:\Users\Nadira\Documents\Experiments\visual-evoked-potentials\psychopy_experiments\media/logos/instagram.png,პროფესიონალები,0.16,0.54,0.16,0.0,1.5,right,796.15,796.15
2025-11-13T07:12:47.345,27,instagram,C:\Users\Nadira\Documents\Experiments\visual-evoked-potentials\psychopy_experiments\media/logos/instagram.png,ოკეანე,0.16,0.54,0.16,0.0,1.5,left,631.02,631.02
2025-11-13T07:12:49.326,28,instagram,C:\Users\Nadira\Documents\Experiments\visual-evoked-potentials\psychopy_experiments\media/logos/instagram.png,მთები,0.16,0.54,0.16,0.0,1.5,left,715.22,715.22
2025-11-13T07:12:51.576,29,instagram,C:\Users\Nadira\Documents\Experiments\visual-evoked-potentials\psychopy_experiments\media/logos/instagram.png,უნარები,0.16,0.54,0.16,0.0,1.5,left,996.7,996.7
2025-11-13T07:12:53.424,30,linkedin,C:\Users\Nadira\Documents\Experiments\visual-evoked-potentials\psychopy_experiments\media/logos/linkedin.png,ვიოლინო,0.16,0.54,0.16,0.0,1.5,left,579.86,579.86
2025-11-13T07:12:55.438,31,linkedin,C:\Users\Nadira\Documents\Experiments\visual-evoked-potentials\psychopy_experiments\media/logos/linkedin.png,კარიერა,0.16,0.54,0.16,0.0,1.5,right,727.45,727.45
2025-11-13T07:12:57.437,32,instagram,C:\Users\Nadira\Documents\Experiments\visual-evoked-potentials\psychopy_experiments\media/logos/instagram.png,ოკეანე,0.16,0.54,0.16,0.0,1.5,left,729.45,729.45
2025-11-13T07:12:59.601,33,instagram,C:\Users\Nadira\Documents\Experiments\visual-evoked-potentials\psychopy_experiments\media/logos/instagram.png,ინფლუენსერი,0.16,0.54,0.16,0.0,1.5,left,896.6,896.6
2025-11-13T07:13:01.600,34,linkedin,C:\Users\Nadira\Documents\Experiments\visual-evoked-potentials\psychopy_experiments\media/logos/linkedin.png,რეზიუმე,0.16,0.54,0.16,0.0,1.5,right,714.66,714.66
2025-11-13T07:13:03.515,35,linkedin,C:\Users\Nadira\Documents\Experiments\visual-evoked-potentials\psychopy_experiments\media/logos/linkedin.png,სამსახური,0.16,0.54,0.16,0.0,1.5,right,629.39,629.39
2025-11-13T07:13:05.395,36,linkedin,C:\Users\Nadira\Documents\Experiments\visual-evoked-potentials\psychopy_experiments\media/logos/linkedin.png,კარიერა,0.16,0.54,0.16,0.0,1.5,right,598.36,598.36
2025-11-13T07:13:07.261,37,linkedin,C:\Users\Nadira\Documents\Experiments\visual-evoked-potentials\psychopy_experiments\media/logos/linkedin.png,ოკეანე,0.16,0.54,0.16,0.0,1.5,left,579.08,579.08
2025-11-13T07:13:09.243,38,instagram,C:\Users\Nadira\Documents\Experiments\visual-evoked-potentials\psychopy_experiments\media/logos/instagram.png,სთორი,0.16,0.54,0.16,0.0,1.5,right,713.54,713.54
2025-11-13T07:13:11.274,39,linkedin,C:\Users\Nadira\Documents\Experiments\visual-evoked-potentials\psychopy_experiments\media/logos/linkedin.png,სანთელი,0.16,0.54,0.16,0.0,1.5,left,748.18,748.18
2025-11-13T07:13:13.324,40,instagram,C:\Users\Nadira\Documents\Experiments\visual-evoked-potentials\psychopy_experiments\media/logos/instagram.png,ოკეანე,0.16,0.54,0.16,0.0,1.5,left,781.19,781.19
2025-11-13T07:13:15.304,41,instagram,C:\Users\Nadira\Documents\Experiments\visual-evoked-potentials\psychopy_experiments\media/logos/instagram.png,კარიერა,0.16,0.54,0.16,0.0,1.5,left,714.92,714.92
2025-11-13T07:13:17.387,42,instagram,C:\Users\Nadira\Documents\Experiments\visual-evoked-potentials\psychopy_experiments\media/logos/instagram.png,ნეთვორქინგი,0.16,0.54,0.16,0.0,1.5,left,846.49,846.49
2025-11-13T07:13:19.551,43,linkedin,C:\Users\Nadira\Documents\Experiments\visual-evoked-potentials\psychopy_experiments\media/logos/linkedin.png,ინფლუენსერი,0.16,0.54,0.16,0.0,1.5,left,880.09,880.09
2025-11-13T07:13:21.450,44,linkedin,C:\Users\Nadira\Documents\Experiments\visual-evoked-potentials\psychopy_experiments\media/logos/linkedin.png,პეპელა,0.16,0.54,0.16,0.0,1.5,left,614.24,614.24
2025-11-13T07:13:23.430,45,linkedin,C:\Users\Nadira\Documents\Experiments\visual-evoked-potentials\psychopy_experiments\media/logos/linkedin.png,ვიოლინო,0.16,0.54,0.16,0.0,1.5,left,697.28,697.28
2025-11-13T07:13:25.761,46,linkedin,C:\Users\Nadira\Documents\Experiments\visual-evoked-potentials\psychopy_experiments\media/logos/linkedin.png,გართობა,0.16,0.54,0.16,0.0,1.5,right,1047.96,1047.96
2025-11-13T07:13:27.810,47,instagram,C:\Users\Nadira\Documents\Experiments\visual-evoked-potentials\psychopy_experiments\media/logos/instagram.png,ლურჯი,0.16,0.54,0.16,0.0,1.5,left,777.81,777.81
2025-11-13T07:13:30.192,48,linkedin,C:\Users\Nadira\Documents\Experiments\visual-evoked-potentials\psychopy_experiments\media/logos/linkedin.png,ინდუსტრია,0.16,0.54,0.16,0.0,1.5,right,1076.78,1076.78
2025-11-13T07:13:32.389,49,instagram,C:\Users\Nadira\Documents\Experiments\visual-evoked-potentials\psychopy_experiments\media/logos/instagram.png,ინსპირაცია,0.16,0.54,0.16,0.0,1.5,right,928.55,928.55
2025-11-13T07:13:34.537,50,instagram,C:\Users\Nadira\Documents\Experiments\visual-evoked-potentials\psychopy_experiments\media/logos/instagram.png,ნეთვორქინგი,0.16,0.54,0.16,0.0,1.5,right,882.03,882.03
2025-11-13T07:13:36.552,51,linkedin,C:\Users\Nadira\Documents\Experiments\visual-evoked-potentials\psychopy_experiments\media/logos/linkedin.png,ბალიში,0.16,0.54,0.16,0.0,1.5,left,727.85,727.85
2025-11-13T07:13:38.684,52,linkedin,C:\Users\Nadira\Documents\Experiments\visual-evoked-potentials\psychopy_experiments\media/logos/linkedin.png,ბურთი,0.16,0.54,0.16,0.0,1.5,left,845.36,845.36
2025-11-13T07:13:41.097,53,instagram,C:\Users\Nadira\Documents\Experiments\visual-evoked-potentials\psychopy_experiments\media/logos/instagram.png,შესაძლებლობა,0.16,0.54,0.16,0.0,1.5,right,1145.69,1145.69
2025-11-13T07:13:42.947,54,instagram,C:\Users\Nadira\Documents\Experiments\visual-evoked-potentials\psychopy_experiments\media/logos/instagram.png,ბალიში,0.16,0.54,0.16,0.0,1.5,left,594.17,594.17
2025-11-13T07:13:45.194,55,instagram,C:\Users\Nadira\Documents\Experiments\visual-evoked-potentials\psychopy_experiments\media/logos/instagram.png,სამსახური,0.16,0.54,0.16,0.0,1.5,left,978.98,978.98
2025-11-13T07:13:47.243,56,linkedin,C:\Users\Nadira\Documents\Experiments\visual-evoked-potentials\psychopy_experiments\media/logos/linkedin.png,რეზიუმე,0.16,0.54,0.16,0.0,1.5,right,765.21,765.21
2025-11-13T07:13:49.624,57,linkedin,C:\Users\Nadira\Documents\Experiments\visual-evoked-potentials\psychopy_experiments\media/logos/linkedin.png,ვიოლინო,0.16,0.54,0.16,0.0,1.5,left,1096.64,1096.64
2025-11-13T07:13:51.641,58,linkedin,C:\Users\Nadira\Documents\Experiments\visual-evoked-potentials\psychopy_experiments\media/logos/linkedin.png,ლურჯი,0.16,0.54,0.16,0.0,1.5,left,745.69,745.69
2025-11-13T07:13:54.270,59,instagram,C:\Users\Nadira\Documents\Experiments\visual-evoked-potentials\psychopy_experiments\media/logos/instagram.png,ფოტოები,0.16,0.54,0.16,0.0,1.5,right,1363.57,1363.57
2025-11-13T07:13:56.302,60,instagram,C:\Users\Nadira\Documents\Experiments\visual-evoked-potentials\psychopy_experiments\media/logos/instagram.png,პროფესიონალები,0.16,0.54,0.16,0.0,1.5,left,764.19,764.19
2025-11-13T07:13:58.469,61,linkedin,C:\Users\Nadira\Documents\Experiments\visual-evoked-potentials\psychopy_experiments\media/logos/linkedin.png,ინდუსტრია,0.16,0.54,0.16,0.0,1.5,right,880.23,880.23
2025-11-13T07:14:00.533,62,linkedin,C:\Users\Nadira\Documents\Experiments\visual-evoked-potentials\psychopy_experiments\media/logos/linkedin.png,სთორი,0.16,0.54,0.16,0.0,1.5,left,780.49,780.49
2025-11-13T07:14:02.629,63,linkedin,C:\Users\Nadira\Documents\Experiments\visual-evoked-potentials\psychopy_experiments\media/logos/linkedin.png,დასაქმება,0.16,0.54,0.16,0.0,1.5,right,815.0,815.0
2025-11-13T07:14:04.628,64,linkedin,C:\Users\Nadira\Documents\Experiments\visual-evoked-potentials\psychopy_experiments\media/logos/linkedin.png,პეპელა,0.16,0.54,0.16,0.0,1.5,left,713.95,713.95
2025-11-13T07:14:06.943,65,linkedin,C:\Users\Nadira\Documents\Experiments\visual-evoked-potentials\psychopy_experiments\media/logos/linkedin.png,მოგზაურობა,0.16,0.54,0.16,0.0,1.5,right,1028.97,1028.97
2025-11-13T07:14:08.991,66,instagram,C:\Users\Nadira\Documents\Experiments\visual-evoked-potentials\psychopy_experiments\media/logos/instagram.png,ნეთვორქინგი,0.16,0.54,0.16,0.0,1.5,left,796.38,796.38
2025-11-13T07:14:11.372,67,instagram,C:\Users\Nadira\Documents\Experiments\visual-evoked-potentials\psychopy_experiments\media/logos/instagram.png,აგური,0.16,0.54,0.16,0.0,1.5,left,1110.96,1110.96
2025-11-13T07:14:13.470,68,linkedin,C:\Users\Nadira\Documents\Experiments\visual-evoked-potentials\psychopy_experiments\media/logos/linkedin.png,სანთელი,0.16,0.54,0.16,0.0,1.5,left,813.84,813.84
2025-11-13T07:14:15.701,69,linkedin,C:\Users\Nadira\Documents\Experiments\visual-evoked-potentials\psychopy_experiments\media/logos/linkedin.png,ინსპირაცია,0.16,0.54,0.16,0.0,1.5,left,948.95,948.95
2025-11-13T07:14:17.917,70,linkedin,C:\Users\Nadira\Documents\Experiments\visual-evoked-potentials\psychopy_experiments\media/logos/linkedin.png,სელფი,0.16,0.54,0.16,0.0,1.5,left,928.95,928.95
2025-11-13T07:14:20.232,71,linkedin,C:\Users\Nadira\Documents\Experiments\visual-evoked-potentials\psychopy_experiments\media/logos/linkedin.png,ფოტოები,0.16,0.54,0.16,0.0,1.5,right,1030.0,1030.0
2025-11-13T07:14:22.395,72,instagram,C:\Users\Nadira\Documents\Experiments\visual-evoked-potentials\psychopy_experiments\media/logos/instagram.png,სელფი,0.16,0.54,0.16,0.0,1.5,right,897.3,897.3
2025-11-13T07:14:24.959,73,instagram,C:\Users\Nadira\Documents\Experiments\visual-evoked-potentials\psychopy_experiments\media/logos/instagram.png,ინდუსტრია,0.16,0.54,0.16,0.0,1.5,left,1312.41,1312.41
2025-11-13T07:14:27.175,74,instagram,C:\Users\Nadira\Documents\Experiments\visual-evoked-potentials\psychopy_experiments\media/logos/instagram.png,აგური,0.16,0.54,0.16,0.0,1.5,left,963.02,963.02
2025-11-13T07:14:29.140,75,linkedin,C:\Users\Nadira\Documents\Experiments\visual-evoked-potentials\psychopy_experiments\media/logos/linkedin.png,ცისარტყელა,0.16,0.54,0.16,0.0,1.5,left,680.41,680.41
2025-11-13T07:14:31.237,76,instagram,C:\Users\Nadira\Documents\Experiments\visual-evoked-potentials\psychopy_experiments\media/logos/instagram.png,ესთეტიური,0.16,0.54,0.16,0.0,1.5,right,828.3,828.3
2025-11-13T07:14:33.287,77,instagram,C:\Users\Nadira\Documents\Experiments\visual-evoked-potentials\psychopy_experiments\media/logos/instagram.png,ვიოლინო,0.16,0.54,0.16,0.0,1.5,left,779.52,779.52
2025-11-13T07:14:35.850,78,linkedin,C:\Users\Nadira\Documents\Experiments\visual-evoked-potentials\psychopy_experiments\media/logos/linkedin.png,ინსპირაცია,0.16,0.54,0.16,0.0,1.5,right,1278.32,1278.32
2025-11-13T07:14:38.182,79,instagram,C:\Users\Nadira\Documents\Experiments\visual-evoked-potentials\psychopy_experiments\media/logos/instagram.png,კარიერა,0.16,0.54,0.16,0.0,1.5,right,1064.77,1064.77
2025-11-13T07:14:40.264,80,instagram,C:\Users\Nadira\Documents\Experiments\visual-evoked-potentials\psychopy_experiments\media/logos/instagram.png,ნეთვორქინგი,0.16,0.54,0.16,0.0,1.5,left,830.57,830.57
2025-11-13T07:14:42.362,81,instagram,C:\Users\Nadira\Documents\Experiments\visual-evoked-potentials\psychopy_experiments\media/logos/instagram.png,მოგზაურობა,0.16,0.54,0.16,0.0,1.5,right,834.61,834.61
2025-11-13T07:14:44.328,82,linkedin,C:\Users\Nadira\Documents\Experiments\visual-evoked-potentials\psychopy_experiments\media/logos/linkedin.png,ნეთვორქინგი,0.16,0.54,0.16,0.0,1.5,right,680.15,680.15
2025-11-13T07:14:46.491,83,instagram,C:\Users\Nadira\Documents\Experiments\visual-evoked-potentials\psychopy_experiments\media/logos/instagram.png,ცისარტყელა,0.16,0.54,0.16,0.0,1.5,left,896.79,896.79
2025-11-13T07:14:48.706,84,linkedin,C:\Users\Nadira\Documents\Experiments\visual-evoked-potentials\psychopy_experiments\media/logos/linkedin.png,წიგნი,0.16,0.54,0.16,0.0,1.5,left,929.33,929.33
2025-11-13T07:14:51.039,85,instagram,C:\Users\Nadira\Documents\Experiments\visual-evoked-potentials\psychopy_experiments\media/logos/instagram.png,სამსახური,0.16,0.54,0.16,0.0,1.5,left,1061.92,1061.92
2025-11-13T07:14:53.669,86,instagram,C:\Users\Nadira\Documents\Experiments\visual-evoked-potentials\psychopy_experiments\media/logos/instagram.png,ინფლუენსერი,0.16,0.54,0.16,0.0,1.5,right,1362.49,1362.49
2025-11-13T07:14:55.999,87,linkedin,C:\Users\Nadira\Documents\Experiments\visual-evoked-potentials\psychopy_experiments\media/logos/linkedin.png,ინფლუენსერი,0.16,0.54,0.16,0.0,1.5,left,1050.22,1050.22
2025-11-13T07:14:58.098,88,instagram,C:\Users\Nadira\Documents\Experiments\visual-evoked-potentials\psychopy_experiments\media/logos/instagram.png,უნარები,0.16,0.54,0.16,0.0,1.5,left,832.07,832.07
2025-11-13T07:15:00.180,89,instagram,C:\Users\Nadira\Documents\Experiments\visual-evoked-potentials\psychopy_experiments\media/logos/instagram.png,მთები,0.16,0.54,0.16,0.0,1.5,left,831.07,831.07
2025-11-13T07:15:02.295,90,instagram,C:\Users\Nadira\Documents\Experiments\visual-evoked-potentials\psychopy_experiments\media/logos/instagram.png,ბალიში,0.16,0.54,0.16,0.0,1.5,left,848.06,848.06
2025-11-13T07:15:04.577,91,linkedin,C:\Users\Nadira\Documents\Experiments\visual-evoked-potentials\psychopy_experiments\media/logos/linkedin.png,ინფლუენსერი,0.16,0.54,0.16,0.0,1.5,left,996.78,996.78
2025-11-13T07:15:06.641,92,linkedin,C:\Users\Nadira\Documents\Experiments\visual-evoked-potentials\psychopy_experiments\media/logos/linkedin.png,ლურჯი,0.16,0.54,0.16,0.0,1.5,right,778.72,778.72
2025-11-13T07:15:09.106,93,linkedin,C:\Users\Nadira\Documents\Experiments\visual-evoked-potentials\psychopy_experiments\media/logos/linkedin.png,გართობა,0.16,0.54,0.16,0.0,1.5,left,1197.52,1197.52
2025-11-13T07:15:11.354,94,instagram,C:\Users\Nadira\Documents\Experiments\visual-evoked-potentials\psychopy_experiments\media/logos/instagram.png,რეზიუმე,0.16,0.54,0.16,0.0,1.5,left,980.42,980.42
2025-11-13T07:15:14.120,95,instagram,C:\Users\Nadira\Documents\Experiments\visual-evoked-potentials\psychopy_experiments\media/logos/instagram.png,შესაძლებლობა,0.16,0.54,0.16,0.0,1.5,,,
2025-11-13T07:15:16.049,96,instagram,C:\Users\Nadira\Documents\Experiments\visual-evoked-potentials\psychopy_experiments\media/logos/instagram.png,ესთეტიური,0.16,0.54,0.16,0.0,1.5,right,666.22,666.22
2025-11-13T07:15:18.047,97,instagram,C:\Users\Nadira\Documents\Experiments\visual-evoked-potentials\psychopy_experiments\media/logos/instagram.png,რეზიუმე,0.16,0.54,0.16,0.0,1.5,left,731.45,731.45
2025-11-13T07:15:20.096,98,instagram,C:\Users\Nadira\Documents\Experiments\visual-evoked-potentials\psychopy_experiments\media/logos/instagram.png,სელფი,0.16,0.54,0.16,0.0,1.5,left,796.78,796.78
2025-11-13T07:15:22.494,99,linkedin,C:\Users\Nadira\Documents\Experiments\visual-evoked-potentials\psychopy_experiments\media/logos/linkedin.png,ესთეტიური,0.16,0.54,0.16,0.0,1.5,left,1112.94,1112.94
2025-11-13T07:15:58.611,100,instagram,C:\Users\Nadira\Documents\Experiments\visual-evoked-potentials\psychopy_experiments\media/logos/instagram.png,პეპელა,0.16,0.54,0.16,0.0,1.5,left,527.47,527.47
2025-11-13T07:16:00.644,101,linkedin,C:\Users\Nadira\Documents\Experiments\visual-evoked-potentials\psychopy_experiments\media/logos/linkedin.png,სელფი,0.16,0.54,0.16,0.0,1.5,left,741.67,741.67
2025-11-13T07:16:02.491,102,linkedin,C:\Users\Nadira\Documents\Experiments\visual-evoked-potentials\psychopy_experiments\media/logos/linkedin.png,ბალიში,0.16,0.54,0.16,0.0,1.5,left,563.0,563.0
2025-11-13T07:16:04.640,103,linkedin,C:\Users\Nadira\Documents\Experiments\visual-evoked-potentials\psychopy_experiments\media/logos/linkedin.png,სანთელი,0.16,0.54,0.16,0.0,1.5,left,881.27,881.27
2025-11-13T07:16:06.804,104,instagram,C:\Users\Nadira\Documents\Experiments\visual-evoked-potentials\psychopy_experiments\media/logos/instagram.png,მოგზაურობა,0.16,0.54,0.16,0.0,1.5,right,895.41,895.41
2025-11-13T07:16:08.904,105,linkedin,C:\Users\Nadira\Documents\Experiments\visual-evoked-potentials\psychopy_experiments\media/logos/linkedin.png,ცისარტყელა,0.16,0.54,0.16,0.0,1.5,left,795.26,795.26
2025-11-13T07:16:11.667,106,instagram,C:\Users\Nadira\Documents\Experiments\visual-evoked-potentials\psychopy_experiments\media/logos/instagram.png,ბალიში,0.16,0.54,0.16,0.0,1.5,,,
2025-11-13T07:16:13.815,107,instagram,C:\Users\Nadira\Documents\Experiments\visual-evoked-potentials\psychopy_experiments\media/logos/instagram.png,მოგონებები,0.16,0.54,0.16,0.0,1.5,right,880.12,880.12
2025-11-13T07:16:15.863,108,linkedin,C:\Users\Nadira\Documents\Experiments\visual-evoked-potentials\psychopy_experiments\media/logos/linkedin.png,შესაძლებლობა,0.16,0.54,0.16,0.0,1.5,right,762.87,762.87
2025-11-13T07:16:18.044,109,instagram,C:\Users\Nadira\Documents\Experiments\visual-evoked-potentials\psychopy_experiments\media/logos/instagram.png,რეზიუმე,0.16,0.54,0.16,0.0,1.5,left,913.75,913.75
2025-11-13T07:16:20.310,110,instagram,C:\Users\Nadira\Documents\Experiments\visual-evoked-potentials\psychopy_experiments\media/logos/instagram.png,კარიერა,0.16,0.54,0.16,0.0,1.5,left,995.61,995.61
2025-11-13T07:16:22.491,111,linkedin,C:\Users\Nadira\Documents\Experiments\visual-evoked-potentials\psychopy_experiments\media/logos/linkedin.png,ინდუსტრია,0.16,0.54,0.16,0.0,1.5,right,895.9,895.9
2025-11-13T07:16:24.522,112,instagram,C:\Users\Nadira\Documents\Experiments\visual-evoked-potentials\psychopy_experiments\media/logos/instagram.png,სამსახური,0.16,0.54,0.16,0.0,1.5,left,763.21,763.21
2025-11-13T07:16:26.454,113,instagram,C:\Users\Nadira\Documents\Experiments\visual-evoked-potentials\psychopy_experiments\media/logos/instagram.png,ვიოლინო,0.16,0.54,0.16,0.0,1.5,left,661.85,661.85
2025-11-13T07:16:28.404,114,linkedin,C:\Users\Nadira\Documents\Experiments\visual-evoked-potentials\psychopy_experiments\media/logos/linkedin.png,კარიერა,0.16,0.54,0.16,0.0,1.5,left,679.8,679.8
2025-11-13T07:16:30.434,115,linkedin,C:\Users\Nadira\Documents\Experiments\visual-evoked-potentials\psychopy_experiments\media/logos/linkedin.png,სთორი,0.16,0.54,0.16,0.0,1.5,left,747.36,747.36
2025-11-13T07:16:32.514,116,instagram,C:\Users\Nadira\Documents\Experiments\visual-evoked-potentials\psychopy_experiments\media/logos/instagram.png,ინფლუენსერი,0.16,0.54,0.16,0.0,1.5,right,814.22,814.22
2025-11-13T07:16:34.547,117,instagram,C:\Users\Nadira\Documents\Experiments\visual-evoked-potentials\psychopy_experiments\media/logos/instagram.png,წიგნი,0.16,0.54,0.16,0.0,1.5,left,778.9,778.9
2025-11-13T07:16:36.728,118,instagram,C:\Users\Nadira\Documents\Experiments\visual-evoked-potentials\psychopy_experiments\media/logos/instagram.png,ლურჯი,0.16,0.54,0.16,0.0,1.5,left,910.92,910.92
2025-11-13T07:16:39.360,119,linkedin,C:\Users\Nadira\Documents\Experiments\visual-evoked-potentials\psychopy_experiments\media/logos/linkedin.png,ოკეანე,0.16,0.54,0.16,0.0,1.5,left,1344.85,1344.85
2025-11-13T07:16:41.374,120,linkedin,C:\Users\Nadira\Documents\Experiments\visual-evoked-potentials\psychopy_experiments\media/logos/linkedin.png,დასაქმება,0.16,0.54,0.16,0.0,1.5,right,729.75,729.75
2025-11-13T07:16:43.622,121,instagram,C:\Users\Nadira\Documents\Experiments\visual-evoked-potentials\psychopy_experiments\media/logos/instagram.png,სთორი,0.16,0.54,0.16,0.0,1.5,right,981.27,981.27
2025-11-13T07:16:45.672,122,instagram,C:\Users\Nadira\Documents\Experiments\visual-evoked-potentials\psychopy_experiments\media/logos/instagram.png,სამსახური,0.16,0.54,0.16,0.0,1.5,left,778.77,778.77
2025-11-13T07:16:48.035,123,linkedin,C:\Users\Nadira\Documents\Experiments\visual-evoked-potentials\psychopy_experiments\media/logos/linkedin.png,უნარები,0.16,0.54,0.16,0.0,1.5,left,1080.52,1080.52
2025-11-13T07:16:49.917,124,linkedin,C:\Users\Nadira\Documents\Experiments\visual-evoked-potentials\psychopy_experiments\media/logos/linkedin.png,უნარები,0.16,0.54,0.16,0.0,1.5,right,599.8,599.8
2025-11-13T07:16:51.915,125,linkedin,C:\Users\Nadira\Documents\Experiments\visual-evoked-potentials\psychopy_experiments\media/logos/linkedin.png,რეზიუმე,0.16,0.54,0.16,0.0,1.5,right,713.88,713.88
2025-11-13T07:16:54.396,126,instagram,C:\Users\Nadira\Documents\Experiments\visual-evoked-potentials\psychopy_experiments\media/logos/instagram.png,სელფი,0.16,0.54,0.16,0.0,1.5,left,1212.21,1212.21
2025-11-13T07:16:56.294,127,instagram,C:\Users\Nadira\Documents\Experiments\visual-evoked-potentials\psychopy_experiments\media/logos/instagram.png,გაზიარება,0.16,0.54,0.16,0.0,1.5,right,629.0,629.0
2025-11-13T07:16:58.709,128,instagram,C:\Users\Nadira\Documents\Experiments\visual-evoked-potentials\psychopy_experiments\media/logos/instagram.png,სთორი,0.16,0.54,0.16,0.0,1.5,right,1147.31,1147.31
2025-11-13T07:17:00.857,129,linkedin,C:\Users\Nadira\Documents\Experiments\visual-evoked-potentials\psychopy_experiments\media/logos/linkedin.png,მთები,0.16,0.54,0.16,0.0,1.5,left,865.22,865.22
2025-11-13T07:17:02.890,130,instagram,C:\Users\Nadira\Documents\Experiments\visual-evoked-potentials\psychopy_experiments\media/logos/instagram.png,ინდუსტრია,0.16,0.54,0.16,0.0,1.5,left,762.01,762.01
2025-11-13T07:17:05.122,131,instagram,C:\Users\Nadira\Documents\Experiments\visual-evoked-potentials\psychopy_experiments\media/logos/instagram.png,რეზიუმე,0.16,0.54,0.16,0.0,1.5,left,981.04,981.04
2025-11-13T07:17:07.518,132,linkedin,C:\Users\Nadira\Documents\Experiments\visual-evoked-potentials\psychopy_experiments\media/logos/linkedin.png,სთორი,0.16,0.54,0.16,0.0,1.5,left,1113.82,1113.82
2025-11-13T07:17:09.684,133,instagram,C:\Users\Nadira\Documents\Experiments\visual-evoked-potentials\psychopy_experiments\media/logos/instagram.png,ცისარტყელა,0.16,0.54,0.16,0.0,1.5,left,896.55,896.55
2025-11-13T07:17:11.781,134,instagram,C:\Users\Nadira\Documents\Experiments\visual-evoked-potentials\psychopy_experiments\media/logos/instagram.png,ბურთი,0.16,0.54,0.16,0.0,1.5,left,831.09,831.09
2025-11-13T07:17:13.880,135,instagram,C:\Users\Nadira\Documents\Experiments\visual-evoked-potentials\psychopy_experiments\media/logos/instagram.png,გართობა,0.16,0.54,0.16,0.0,1.5,left,829.78,829.78
2025-11-13T07:17:16.294,136,instagram,C:\Users\Nadira\Documents\Experiments\visual-evoked-potentials\psychopy_experiments\media/logos/instagram.png,მოგონებები,0.16,0.54,0.16,0.0,1.5,right,1147.36,1147.36
2025-11-13T07:17:18.275,137,instagram,C:\Users\Nadira\Documents\Experiments\visual-evoked-potentials\psychopy_experiments\media/logos/instagram.png,გაზიარება,0.16,0.54,0.16,0.0,1.5,right,731.24,731.24
2025-11-13T07:17:20.090,138,instagram,C:\Users\Nadira\Documents\Experiments\visual-evoked-potentials\psychopy_experiments\media/logos/instagram.png,ოკეანე,0.16,0.54,0.16,0.0,1.5,left,565.78,565.78
2025-11-13T07:17:22.155,139,linkedin,C:\Users\Nadira\Documents\Experiments\visual-evoked-potentials\psychopy_experiments\media/logos/linkedin.png,ბურთი,0.16,0.54,0.16,0.0,1.5,left,765.11,765.11
2025-11-13T07:17:23.955,140,linkedin,C:\Users\Nadira\Documents\Experiments\visual-evoked-potentials\psychopy_experiments\media/logos/linkedin.png,წიგნი,0.16,0.54,0.16,0.0,1.5,left,531.21,531.21
2025-11-13T07:17:25.786,141,instagram,C:\Users\Nadira\Documents\Experiments\visual-evoked-potentials\psychopy_experiments\media/logos/instagram.png,პეპელა,0.16,0.54,0.16,0.0,1.5,left,564.75,564.75
2025-11-13T07:17:28.566,142,linkedin,C:\Users\Nadira\Documents\Experiments\visual-evoked-potentials\psychopy_experiments\media/logos/linkedin.png,ინდუსტრია,0.16,0.54,0.16,0.0,1.5,,,
2025-11-13T07:17:30.682,143,instagram,C:\Users\Nadira\Documents\Experiments\visual-evoked-potentials\psychopy_experiments\media/logos/instagram.png,აგური,0.16,0.54,0.16,0.0,1.5,left,847.4,847.4
2025-11-13T07:17:33.479,144,linkedin,C:\Users\Nadira\Documents\Experiments\visual-evoked-potentials\psychopy_experiments\media/logos/linkedin.png,გაზიარება,0.16,0.54,0.16,0.0,1.5,,,
2025-11-13T07:17:35.827,145,linkedin,C:\Users\Nadira\Documents\Experiments\visual-evoked-potentials\psychopy_experiments\media/logos/linkedin.png,შესაძლებლობა,0.16,0.54,0.16,0.0,1.5,right,1080.22,1080.22
2025-11-13T07:17:37.926,146,linkedin,C:\Users\Nadira\Documents\Experiments\visual-evoked-potentials\psychopy_experiments\media/logos/linkedin.png,ნეთვორქინგი,0.16,0.54,0.16,0.0,1.5,right,813.17,813.17
2025-11-13T07:17:40.024,147,instagram,C:\Users\Nadira\Documents\Experiments\visual-evoked-potentials\psychopy_experiments\media/logos/instagram.png,პროფესიონალები,0.16,0.54,0.16,0.0,1.5,left,827.78,827.78
2025-11-13T07:17:42.155,148,instagram,C:\Users\Nadira\Documents\Experiments\visual-evoked-potentials\psychopy_experiments\media/logos/instagram.png,ბურთი,0.16,0.54,0.16,0.0,1.5,left,864.76,864.76
2025-11-13T07:17:44.337,149,instagram,C:\Users\Nadira\Documents\Experiments\visual-evoked-potentials\psychopy_experiments\media/logos/instagram.png,მთები,0.16,0.54,0.16,0.0,1.5,left,913.38,913.38
2025-11-13T07:17:46.650,150,linkedin,C:\Users\Nadira\Documents\Experiments\visual-evoked-potentials\psychopy_experiments\media/logos/linkedin.png,ფოტოები,0.16,0.54,0.16,0.0,1.5,right,1031.22,1031.22
2025-11-13T07:17:48.784,151,instagram,C:\Users\Nadira\Documents\Experiments\visual-evoked-potentials\psychopy_experiments\media/logos/instagram.png,ინსპირაცია,0.16,0.54,0.16,0.0,1.5,right,860.81,860.81
2025-11-13T07:17:50.831,152,linkedin,C:\Users\Nadira\Documents\Experiments\visual-evoked-potentials\psychopy_experiments\media/logos/linkedin.png,ოკეანე,0.16,0.54,0.16,0.0,1.5,left,764.12,764.12
2025-11-13T07:17:53.078,153,linkedin,C:\Users\Nadira\Documents\Experiments\visual-evoked-potentials\psychopy_experiments\media/logos/linkedin.png,სამსახური,0.16,0.54,0.16,0.0,1.5,right,963.26,963.26
2025-11-13T07:17:54.978,154,linkedin,C:\Users\Nadira\Documents\Experiments\visual-evoked-potentials\psychopy_experiments\media/logos/linkedin.png,ბალიში,0.16,0.54,0.16,0.0,1.5,left,612.98,612.98
2025-11-13T07:17:57.374,155,linkedin,C:\Users\Nadira\Documents\Experiments\visual-evoked-potentials\psychopy_experiments\media/logos/linkedin.png,აგური,0.16,0.54,0.16,0.0,1.5,left,1114.46,1114.46
2025-11-13T07:17:59.372,156,linkedin,C:\Users\Nadira\Documents\Experiments\visual-evoked-potentials\psychopy_experiments\media/logos/linkedin.png,ინსპირაცია,0.16,0.54,0.16,0.0,1.5,right,712.09,712.09
2025-11-13T07:18:01.254,157,instagram,C:\Users\Nadira\Documents\Experiments\visual-evoked-potentials\psychopy_experiments\media/logos/instagram.png,ფოტოები,0.16,0.54,0.16,0.0,1.5,right,613.05,613.05
2025-11-13T07:18:03.236,158,instagram,C:\Users\Nadira\Documents\Experiments\visual-evoked-potentials\psychopy_experiments\media/logos/instagram.png,მოგზაურობა,0.16,0.54,0.16,0.0,1.5,right,713.54,713.54
2025-11-13T07:18:05.301,159,instagram,C:\Users\Nadira\Documents\Experiments\visual-evoked-potentials\psychopy_experiments\media/logos/instagram.png,კარიერა,0.16,0.54,0.16,0.0,1.5,left,795.53,795.53
2025-11-13T07:18:07.350,160,instagram,C:\Users\Nadira\Documents\Experiments\visual-evoked-potentials\psychopy_experiments\media/logos/instagram.png,უნარები,0.16,0.54,0.16,0.0,1.5,left,795.4,795.4
2025-11-13T07:18:10.014,161,linkedin,C:\Users\Nadira\Documents\Experiments\visual-evoked-potentials\psychopy_experiments\media/logos/linkedin.png,მოგონებები,0.16,0.54,0.16,0.0,1.5,right,1380.61,1380.61
2025-11-13T07:18:11.929,162,linkedin,C:\Users\Nadira\Documents\Experiments\visual-evoked-potentials\psychopy_experiments\media/logos/linkedin.png,მთები,0.16,0.54,0.16,0.0,1.5,left,633.35,633.35
2025-11-13T07:18:14.527,163,linkedin,C:\Users\Nadira\Documents\Experiments\visual-evoked-potentials\psychopy_experiments\media/logos/linkedin.png,აგური,0.16,0.54,0.16,0.0,1.5,left,1311.61,1311.61
2025-11-13T07:18:16.940,164,linkedin,C:\Users\Nadira\Documents\Experiments\visual-evoked-potentials\psychopy_experiments\media/logos/linkedin.png,რეზიუმე,0.16,0.54,0.16,0.0,1.5,right,1131.98,1131.98
2025-11-13T07:18:19.705,165,instagram,C:\Users\Nadira\Documents\Experiments\visual-evoked-potentials\psychopy_experiments\media/logos/instagram.png,წიგნი,0.16,0.54,0.16,0.0,1.5,,,
2025-11-13T07:18:21.570,166,instagram,C:\Users\Nadira\Documents\Experiments\visual-evoked-potentials\psychopy_experiments\media/logos/instagram.png,სანთელი,0.16,0.54,0.16,0.0,1.5,left,596.17,596.17
2025-11-13T07:18:24.351,167,linkedin,C:\Users\Nadira\Documents\Experiments\visual-evoked-potentials\psychopy_experiments\media/logos/linkedin.png,ესთეტიური,0.16,0.54,0.16,0.0,1.5,,,
2025-11-13T07:18:26.382,168,instagram,C:\Users\Nadira\Documents\Experiments\visual-evoked-potentials\psychopy_experiments\media/logos/instagram.png,წიგნი,0.16,0.54,0.16,0.0,1.5,left,763.42,763.42
2025-11-13T07:18:28.664,169,instagram,C:\Users\Nadira\Documents\Experiments\visual-evoked-potentials\psychopy_experiments\media/logos/instagram.png,ვიოლინო,0.16,0.54,0.16,0.0,1.5,left,1012.35,1012.35
2025-11-13T07:18:31.362,170,linkedin,C:\Users\Nadira\Documents\Experiments\visual-evoked-potentials\psychopy_experiments\media/logos/linkedin.png,წიგნი,0.16,0.54,0.16,0.0,1.5,left,1413.22,1413.22
2025-11-13T07:18:33.975,171,linkedin,C:\Users\Nadira\Documents\Experiments\visual-evoked-potentials\psychopy_experiments\media/logos/linkedin.png,უნარები,0.16,0.54,0.16,0.0,1.5,left,1331.33,1331.33
2025-11-13T07:18:35.942,172,linkedin,C:\Users\Nadira\Documents\Experiments\visual-evoked-potentials\psychopy_experiments\media/logos/linkedin.png,დასაქმება,0.16,0.54,0.16,0.0,1.5,right,679.43,679.43
2025-11-13T07:18:37.890,173,linkedin,C:\Users\Nadira\Documents\Experiments\visual-evoked-potentials\psychopy_experiments\media/logos/linkedin.png,ესთეტიური,0.16,0.54,0.16,0.0,1.5,left,681.16,681.16
2025-11-13T07:18:39.904,174,instagram,C:\Users\Nadira\Documents\Experiments\visual-evoked-potentials\psychopy_experiments\media/logos/instagram.png,ფოტოები,0.16,0.54,0.16,0.0,1.5,right,747.07,747.07
2025-11-13T07:18:41.885,175,linkedin,C:\Users\Nadira\Documents\Experiments\visual-evoked-potentials\psychopy_experiments\media/logos/linkedin.png,ნეთვორქინგი,0.16,0.54,0.16,0.0,1.5,right,695.09,695.09
2025-11-13T07:18:43.817,176,linkedin,C:\Users\Nadira\Documents\Experiments\visual-evoked-potentials\psychopy_experiments\media/logos/linkedin.png,კარიერა,0.16,0.54,0.16,0.0,1.5,right,646.64,646.64
2025-11-13T07:18:45.899,177,linkedin,C:\Users\Nadira\Documents\Experiments\visual-evoked-potentials\psychopy_experiments\media/logos/linkedin.png,გაზიარება,0.16,0.54,0.16,0.0,1.5,right,794.65,794.65
2025-11-13T07:18:47.831,178,linkedin,C:\Users\Nadira\Documents\Experiments\visual-evoked-potentials\psychopy_experiments\media/logos/linkedin.png,ვიოლინო,0.16,0.54,0.16,0.0,1.5,left,649.26,649.26
2025-11-13T07:18:49.678,179,linkedin,C:\Users\Nadira\Documents\Experiments\visual-evoked-potentials\psychopy_experiments\media/logos/linkedin.png,ოკეანე,0.16,0.54,0.16,0.0,1.5,left,564.16,564.16
2025-11-13T07:18:51.944,180,linkedin,C:\Users\Nadira\Documents\Experiments\visual-evoked-potentials\psychopy_experiments\media/logos/linkedin.png,უნარები,0.16,0.54,0.16,0.0,1.5,left,980.39,980.39
2025-11-13T07:18:54.492,181,instagram,C:\Users\Nadira\Documents\Experiments\visual-evoked-potentials\psychopy_experiments\media/logos/instagram.png,წიგნი,0.16,0.54,0.16,0.0,1.5,left,1297.84,1297.84
2025-11-13T07:18:56.572,182,linkedin,C:\Users\Nadira\Documents\Experiments\visual-evoked-potentials\psychopy_experiments\media/logos/linkedin.png,გართობა,0.16,0.54,0.16,0.0,1.5,right,779.76,779.76
2025-11-13T07:18:58.638,183,linkedin,C:\Users\Nadira\Documents\Experiments\visual-evoked-potentials\psychopy_experiments\media/logos/linkedin.png,წიგნი,0.16,0.54,0.16,0.0,1.5,left,779.56,779.56
2025-11-13T07:19:00.702,184,linkedin,C:\Users\Nadira\Documents\Experiments\visual-evoked-potentials\psychopy_experiments\media/logos/linkedin.png,გართობა,0.16,0.54,0.16,0.0,1.5,right,781.15,781.15
2025-11-13T07:19:02.884,185,instagram,C:\Users\Nadira\Documents\Experiments\visual-evoked-potentials\psychopy_experiments\media/logos/instagram.png,გართობა,0.16,0.54,0.16,0.0,1.5,right,916.28,916.28
2025-11-13T07:19:05.631,186,instagram,C:\Users\Nadira\Documents\Experiments\visual-evoked-potentials\psychopy_experiments\media/logos/instagram.png,სელფი,0.16,0.54,0.16,0.0,1.5,,,
2025-11-13T07:19:07.731,187,instagram,C:\Users\Nadira\Documents\Experiments\visual-evoked-potentials\psychopy_experiments\media/logos/instagram.png,გართობა,0.16,0.54,0.16,0.0,1.5,right,829.7,829.7
2025-11-13T07:19:09.911,188,instagram,C:\Users\Nadira\Documents\Experiments\visual-evoked-potentials\psychopy_experiments\media/logos/instagram.png,ვიოლინო,0.16,0.54,0.16,0.0,1.5,left,911.87,911.87
2025-11-13T07:19:12.126,189,linkedin,C:\Users\Nadira\Documents\Experiments\visual-evoked-potentials\psychopy_experiments\media/logos/linkedin.png,სთორი,0.16,0.54,0.16,0.0,1.5,right,930.33,930.33
2025-11-13T07:19:14.158,190,linkedin,C:\Users\Nadira\Documents\Experiments\visual-evoked-potentials\psychopy_experiments\media/logos/linkedin.png,ბურთი,0.16,0.54,0.16,0.0,1.5,left,747.78,747.78
2025-11-13T07:19:16.422,191,instagram,C:\Users\Nadira\Documents\Experiments\visual-evoked-potentials\psychopy_experiments\media/logos/instagram.png,ესთეტიური,0.16,0.54,0.16,0.0,1.5,left,996.22,996.22
2025-11-13T07:19:18.838,192,instagram,C:\Users\Nadira\Documents\Experiments\visual-evoked-potentials\psychopy_experiments\media/logos/instagram.png,სანთელი,0.16,0.54,0.16,0.0,1.5,left,1146.45,1146.45
2025-11-13T07:19:20.936,193,instagram,C:\Users\Nadira\Documents\Experiments\visual-evoked-potentials\psychopy_experiments\media/logos/instagram.png,ესთეტიური,0.16,0.54,0.16,0.0,1.5,left,832.23,832.23
2025-11-13T07:19:22.967,194,instagram,C:\Users\Nadira\Documents\Experiments\visual-evoked-potentials\psychopy_experiments\media/logos/instagram.png,გართობა,0.16,0.54,0.16,0.0,1.5,right,764.72,764.72
2025-11-13T07:19:25.098,195,instagram,C:\Users\Nadira\Documents\Experiments\visual-evoked-potentials\psychopy_experiments\media/logos/instagram.png,ინდუსტრია,0.16,0.54,0.16,0.0,1.5,right,864.77,864.77
2025-11-13T07:19:27.081,196,linkedin,C:\Users\Nadira\Documents\Experiments\visual-evoked-potentials\psychopy_experiments\media/logos/linkedin.png,ცისარტყელა,0.16,0.54,0.16,0.0,1.5,left,696.73,696.73
2025-11-13T07:19:29.196,197,instagram,C:\Users\Nadira\Documents\Experiments\visual-evoked-potentials\psychopy_experiments\media/logos/instagram.png,ბურთი,0.16,0.54,0.16,0.0,1.5,left,864.45,864.45
2025-11-13T07:19:31.094,198,linkedin,C:\Users\Nadira\Documents\Experiments\visual-evoked-potentials\psychopy_experiments\media/logos/linkedin.png,ლურჯი,0.16,0.54,0.16,0.0,1.5,left,632.21,632.21
2025-11-13T07:19:33.158,199,instagram,C:\Users\Nadira\Documents\Experiments\visual-evoked-potentials\psychopy_experiments\media/logos/instagram.png,აგური,0.16,0.54,0.16,0.0,1.5,left,796.38,796.38
2025-11-13T07:20:22.234,200,linkedin,C:\Users\Nadira\Documents\Experiments\visual-evoked-potentials\psychopy_experiments\media/logos/linkedin.png,შესაძლებლობა,0.16,0.54,0.16,0.0,1.5,right,845.31,845.31
2025-11-13T07:20:24.081,201,instagram,C:\Users\Nadira\Documents\Experiments\visual-evoked-potentials\psychopy_experiments\media/logos/instagram.png,შესაძლებლობა,0.16,0.54,0.16,0.0,1.5,right,582.89,582.89
2025-11-13T07:20:26.029,202,instagram,C:\Users\Nadira\Documents\Experiments\visual-evoked-potentials\psychopy_experiments\media/logos/instagram.png,მოგონებები,0.16,0.54,0.16,0.0,1.5,right,681.36,681.36
2025-11-13T07:20:28.076,203,instagram,C:\Users\Nadira\Documents\Experiments\visual-evoked-potentials\psychopy_experiments\media/logos/instagram.png,დასაქმება,0.16,0.54,0.16,0.0,1.5,left,779.39,779.39
2025-11-13T07:20:29.892,204,instagram,C:\Users\Nadira\Documents\Experiments\visual-evoked-potentials\psychopy_experiments\media/logos/instagram.png,ლურჯი,0.16,0.54,0.16,0.0,1.5,left,562.38,562.38
2025-11-13T07:20:31.823,205,instagram,C:\Users\Nadira\Documents\Experiments\visual-evoked-potentials\psychopy_experiments\media/logos/instagram.png,ინდუსტრია,0.16,0.54,0.16,0.0,1.5,right,662.85,662.85
2025-11-13T07:20:33.655,206,instagram,C:\Users\Nadira\Documents\Experiments\visual-evoked-potentials\psychopy_experiments\media/logos/instagram.png,პეპელა,0.16,0.54,0.16,0.0,1.5,left,580.36,580.36
2025-11-13T07:20:35.503,207,instagram,C:\Users\Nadira\Documents\Experiments\visual-evoked-potentials\psychopy_experiments\media/logos/instagram.png,მთები,0.16,0.54,0.16,0.0,1.5,left,579.44,579.44
2025-11-13T07:20:37.436,208,instagram,C:\Users\Nadira\Documents\Experiments\visual-evoked-potentials\psychopy_experiments\media/logos/instagram.png,დასაქმება,0.16,0.54,0.16,0.0,1.5,right,664.28,664.28
2025-11-13T07:20:39.400,209,instagram,C:\Users\Nadira\Documents\Experiments\visual-evoked-potentials\psychopy_experiments\media/logos/instagram.png,შესაძლებლობა,0.16,0.54,0.16,0.0,1.5,right,696.29,696.29
2025-11-13T07:20:41.548,210,linkedin,C:\Users\Nadira\Documents\Experiments\visual-evoked-potentials\psychopy_experiments\media/logos/linkedin.png,მოგზაურობა,0.16,0.54,0.16,0.0,1.5,left,848.42,848.42
2025-11-13T07:20:43.412,211,linkedin,C:\Users\Nadira\Documents\Experiments\visual-evoked-potentials\psychopy_experiments\media/logos/linkedin.png,მოგზაურობა,0.16,0.54,0.16,0.0,1.5,left,582.78,582.78
2025-11-13T07:20:45.363,212,linkedin,C:\Users\Nadira\Documents\Experiments\visual-evoked-potentials\psychopy_experiments\media/logos/linkedin.png,მთები,0.16,0.54,0.16,0.0,1.5,left,662.42,662.42
2025-11-13T07:20:47.576,213,linkedin,C:\Users\Nadira\Documents\Experiments\visual-evoked-potentials\psychopy_experiments\media/logos/linkedin.png,სამსახური,0.16,0.54,0.16,0.0,1.5,left,929.5,929.5
2025-11-13T07:20:49.457,214,instagram,C:\Users\Nadira\Documents\Experiments\visual-evoked-potentials\psychopy_experiments\media/logos/instagram.png,პეპელა,0.16,0.54,0.16,0.0,1.5,left,612.66,612.66
2025-11-13T07:20:51.306,215,linkedin,C:\Users\Nadira\Documents\Experiments\visual-evoked-potentials\psychopy_experiments\media/logos/linkedin.png,გაზიარება,0.16,0.54,0.16,0.0,1.5,left,548.73,548.73
2025-11-13T07:20:53.171,216,instagram,C:\Users\Nadira\Documents\Experiments\visual-evoked-potentials\psychopy_experiments\media/logos/instagram.png,დასაქმება,0.16,0.54,0.16,0.0,1.5,left,597.02,597.02
2025-11-13T07:20:55.152,217,linkedin,C:\Users\Nadira\Documents\Experiments\visual-evoked-potentials\psychopy_experiments\media/logos/linkedin.png,აგური,0.16,0.54,0.16,0.0,1.5,left,696.07,696.07
2025-11-13T07:20:57.084,218,instagram,C:\Users\Nadira\Documents\Experiments\visual-evoked-potentials\psychopy_experiments\media/logos/instagram.png,ბურთი,0.16,0.54,0.16,0.0,1.5,left,664.23,664.23
2025-11-13T07:20:59.349,219,linkedin,C:\Users\Nadira\Documents\Experiments\visual-evoked-potentials\psychopy_experiments\media/logos/linkedin.png,ინსპირაცია,0.16,0.54,0.16,0.0,1.5,right,980.37,980.37
2025-11-13T07:21:01.397,220,linkedin,C:\Users\Nadira\Documents\Experiments\visual-evoked-potentials\psychopy_experiments\media/logos/linkedin.png,გაზიარება,0.16,0.54,0.16,0.0,1.5,left,763.85,763.85
2025-11-13T07:21:03.396,221,linkedin,C:\Users\Nadira\Documents\Experiments\visual-evoked-potentials\psychopy_experiments\media/logos/linkedin.png,ბურთი,0.16,0.54,0.16,0.0,1.5,left,714.35,714.35
2025-11-13T07:21:05.495,222,instagram,C:\Users\Nadira\Documents\Experiments\visual-evoked-potentials\psychopy_experiments\media/logos/instagram.png,გაზიარება,0.16,0.54,0.16,0.0,1.5,right,848.57,848.57
2025-11-13T07:21:07.642,223,instagram,C:\Users\Nadira\Documents\Experiments\visual-evoked-potentials\psychopy_experiments\media/logos/instagram.png,ინსპირაცია,0.16,0.54,0.16,0.0,1.5,right,879.97,879.97
2025-11-13T07:21:09.657,224,instagram,C:\Users\Nadira\Documents\Experiments\visual-evoked-potentials\psychopy_experiments\media/logos/instagram.png,ლურჯი,0.16,0.54,0.16,0.0,1.5,left,748.48,748.48
2025-11-13T07:21:11.788,225,linkedin,C:\Users\Nadira\Documents\Experiments\visual-evoked-potentials\psychopy_experiments\media/logos/linkedin.png,ფოტოები,0.16,0.54,0.16,0.0,1.5,right,846.52,846.52
2025-11-13T07:21:13.737,226,linkedin,C:\Users\Nadira\Documents\Experiments\visual-evoked-potentials\psychopy_experiments\media/logos/linkedin.png,პეპელა,0.16,0.54,0.16,0.0,1.5,left,662.41,662.41
2025-11-13T07:21:15.718,227,instagram,C:\Users\Nadira\Documents\Experiments\visual-evoked-potentials\psychopy_experiments\media/logos/instagram.png,პროფესიონალები,0.16,0.54,0.16,0.0,1.5,left,710.93,710.93
2025-11-13T07:21:17.783,228,linkedin,C:\Users\Nadira\Documents\Experiments\visual-evoked-potentials\psychopy_experiments\media/logos/linkedin.png,ინფლუენსერი,0.16,0.54,0.16,0.0,1.5,right,779.79,779.79
2025-11-13T07:21:19.932,229,linkedin,C:\Users\Nadira\Documents\Experiments\visual-evoked-potentials\psychopy_experiments\media/logos/linkedin.png,მოგონებები,0.16,0.54,0.16,0.0,1.5,right,863.0,863.0
2025-11-13T07:21:22.012,230,instagram,C:\Users\Nadira\Documents\Experiments\visual-evoked-potentials\psychopy_experiments\media/logos/instagram.png,ინფლუენსერი,0.16,0.54,0.16,0.0,1.5,right,815.18,815.18
2025-11-13T07:21:23.927,231,linkedin,C:\Users\Nadira\Documents\Experiments\visual-evoked-potentials\psychopy_experiments\media/logos/linkedin.png,აგური,0.16,0.54,0.16,0.0,1.5,left,613.96,613.96
2025-11-13T07:21:25.893,232,linkedin,C:\Users\Nadira\Documents\Experiments\visual-evoked-potentials\psychopy_experiments\media/logos/linkedin.png,დასაქმება,0.16,0.54,0.16,0.0,1.5,right,680.01,680.01
2025-11-13T07:21:27.941,233,linkedin,C:\Users\Nadira\Documents\Experiments\visual-evoked-potentials\psychopy_experiments\media/logos/linkedin.png,სამსახური,0.16,0.54,0.16,0.0,1.5,right,764.56,764.56
2025-11-13T07:21:29.772,234,linkedin,C:\Users\Nadira\Documents\Experiments\visual-evoked-potentials\psychopy_experiments\media/logos/linkedin.png,პროფესიონალები,0.16,0.54,0.16,0.0,1.5,right,548.7,548.7
2025-11-13T07:21:31.671,235,linkedin,C:\Users\Nadira\Documents\Experiments\visual-evoked-potentials\psychopy_experiments\media/logos/linkedin.png,ლურჯი,0.16,0.54,0.16,0.0,1.5,left,612.1,612.1
2025-11-13T07:21:33.736,236,instagram,C:\Users\Nadira\Documents\Experiments\visual-evoked-potentials\psychopy_experiments\media/logos/instagram.png,სთორი,0.16,0.54,0.16,0.0,1.5,right,796.36,796.36
2025-11-13T07:21:35.767,237,linkedin,C:\Users\Nadira\Documents\Experiments\visual-evoked-potentials\psychopy_experiments\media/logos/linkedin.png,ფოტოები,0.16,0.54,0.16,0.0,1.5,right,745.68,745.68
2025-11-13T07:21:37.649,238,linkedin,C:\Users\Nadira\Documents\Experiments\visual-evoked-potentials\psychopy_experiments\media/logos/linkedin.png,პეპელა,0.16,0.54,0.16,0.0,1.5,left,596.22,596.22
2025-11-13T07:21:39.830,239,instagram,C:\Users\Nadira\Documents\Experiments\visual-evoked-potentials\psychopy_experiments\media/logos/instagram.png,ფოტოები,0.16,0.54,0.16,0.0,1.5,left,911.89,911.89
