timestamp_iso,global_trial,block,trial_in_block,stimulus,center_dir,congruent,correct_key,resp_key,correct,rt_ms,stim_time_s,isi_s
2025-10-10T08:40:07.242,1,1,1,>>>>>,>,1,slash,slash,1,715.92,0.2,1.389
2025-10-10T08:40:09.209,2,1,2,<<<<<,<,1,lshift,lshift,1,633.15,0.2,1.386
2025-10-10T08:40:11.056,3,1,3,>>>>>,>,1,slash,slash,1,533.28,0.2,1.262
2025-10-10T08:40:12.837,4,1,4,>><>>,<,0,lshift,lshift,1,449.56,0.2,1.381
2025-10-10T08:40:14.685,5,1,5,>><>>,<,0,lshift,lshift,1,582.3,0.2,1.239
2025-10-10T08:40:16.551,6,1,6,>><>>,<,0,lshift,lshift,1,482.41,0.2,1.237
2025-10-10T08:40:18.316,7,1,7,<<<<<,<,1,lshift,lshift,1,348.6,0.2,1.32
2025-10-10T08:40:20.032,8,1,8,>>>>>,>,1,slash,slash,1,350.91,0.2,1.279
2025-10-10T08:40:21.830,9,1,9,>>>>>,>,1,slash,slash,1,383.63,0.2,1.386
2025-10-10T08:40:23.512,10,1,10,>>>>>,>,1,slash,slash,1,365.7,0.2,1.239
2025-10-10T08:40:25.194,11,1,11,<<<<<,<,1,lshift,lshift,1,384.24,0.2,1.213
2025-10-10T08:40:26.826,12,1,12,>>>>>,>,1,slash,slash,1,366.91,0.2,1.381
2025-10-10T08:40:28.524,13,1,13,>>>>>,>,1,slash,slash,1,348.66,0.2,1.315
2025-10-10T08:40:30.140,14,1,14,>>>>>,>,1,slash,slash,1,367.14,0.2,1.242
2025-10-10T08:40:31.921,15,1,15,<<><<,>,0,slash,lshift,0,415.55,0.2,1.324
2025-10-10T08:40:33.669,16,1,16,<<><<,>,0,slash,slash,1,415.61,0.2,1.229
2025-10-10T08:40:35.319,17,1,17,<<<<<,<,1,lshift,lshift,1,415.88,0.2,1.297
2025-10-10T08:40:37.034,18,1,18,<<<<<,<,1,lshift,lshift,1,350.55,0.2,1.389
2025-10-10T08:40:38.664,19,1,19,>><>>,<,0,lshift,lshift,1,299.66,0.2,1.376
2025-10-10T08:40:40.197,20,1,20,<<><<,>,0,slash,lshift,0,299.3,0.2,1.297
2025-10-10T08:40:41.913,21,1,21,<<><<,>,0,slash,slash,1,484.07,0.2,1.281
2025-10-10T08:40:43.727,22,1,22,>><>>,<,0,lshift,lshift,1,482.79,0.2,1.309
2025-10-10T08:40:45.292,23,1,23,<<><<,>,0,slash,lshift,0,333.12,0.2,1.332
2025-10-10T08:40:46.991,24,1,24,>>>>>,>,1,slash,slash,1,349.96,0.2,1.231
2025-10-10T08:40:48.773,25,1,25,<<<<<,<,1,lshift,lshift,1,415.08,0.2,1.214
2025-10-10T08:40:50.405,26,1,26,<<<<<,<,1,lshift,lshift,1,383.28,0.2,1.234
2025-10-10T08:40:52.171,27,1,27,>><>>,<,0,lshift,lshift,1,517.74,0.2,1.291
2025-10-10T08:40:53.884,28,1,28,<<<<<,<,1,lshift,lshift,1,415.73,0.2,1.228
2025-10-10T08:40:55.702,29,1,29,<<><<,>,0,slash,slash,1,433.97,0.2,1.312
2025-10-10T08:40:57.415,30,1,30,<<><<,>,0,slash,lshift,0,348.02,0.2,1.34
2025-10-10T08:40:59.214,31,1,31,<<><<,>,0,slash,slash,1,449.3,0.2,1.354
2025-10-10T08:41:00.797,32,1,32,>>>>>,>,1,slash,slash,1,316.78,0.2,1.329
2025-10-10T08:41:02.613,33,1,33,<<><<,>,0,slash,slash,1,534.14,0.2,1.206
2025-10-10T08:41:04.343,34,1,34,<<<<<,<,1,lshift,lshift,1,417.38,0.2,1.383
2025-10-10T08:41:06.041,35,1,35,<<><<,>,0,slash,slash,1,431.96,0.2,1.312
2025-10-10T08:41:07.839,36,1,36,>><>>,<,0,lshift,lshift,1,465.17,0.2,1.391
2025-10-10T08:41:09.573,37,1,37,>>>>>,>,1,slash,slash,1,334.53,0.2,1.278
2025-10-10T08:41:11.421,38,1,38,>><>>,<,0,lshift,lshift,1,416.15,0.2,1.26
2025-10-10T08:41:13.169,39,1,39,<<<<<,<,1,lshift,lshift,1,367.54,0.2,1.214
2025-10-10T08:41:14.800,40,1,40,>><>>,<,0,lshift,slash,0,399.99,0.2,1.398
2025-10-10T08:41:16.532,41,1,41,>>>>>,>,1,slash,slash,1,365.74,0.2,1.334
2025-10-10T08:41:18.215,42,1,42,<<<<<,<,1,lshift,lshift,1,383.31,0.2,1.314
2025-10-10T08:41:19.863,43,1,43,>><>>,<,0,lshift,slash,0,382.6,0.2,1.366
2025-10-10T08:41:21.645,44,1,44,>><>>,<,0,lshift,lshift,1,398.91,0.2,1.24
2025-10-10T08:41:23.444,45,1,45,>>>>>,>,1,slash,slash,1,434.62,0.2,1.22
2025-10-10T08:41:25.258,46,1,46,<<><<,>,0,slash,slash,1,415.91,0.2,1.206
2025-10-10T08:41:27.123,47,1,47,>><>>,<,0,lshift,lshift,1,449.01,0.2,1.206
2025-10-10T08:41:28.821,48,1,48,<<<<<,<,1,lshift,lshift,1,382.57,0.2,1.385
2025-10-10T08:41:30.687,49,1,49,<<><<,>,0,slash,slash,1,449.89,0.2,1.344
2025-10-10T08:41:32.318,50,1,50,<<><<,>,0,slash,lshift,0,332.69,0.2,1.237
2025-10-10T08:41:37.980,51,2,1,<<><<,>,0,slash,slash,1,566.64,0.2,1.263
2025-10-10T08:41:39.895,52,2,2,>><>>,<,0,lshift,lshift,1,632.97,0.2,1.358
2025-10-10T08:41:41.544,53,2,3,<<><<,>,0,slash,slash,1,383.58,0.2,1.33
2025-10-10T08:41:43.259,54,2,4,<<<<<,<,1,lshift,lshift,1,332.99,0.2,1.398
2025-10-10T08:41:44.958,55,2,5,<<<<<,<,1,lshift,lshift,1,384.84,0.2,1.304
2025-10-10T08:41:46.656,56,2,6,<<<<<,<,1,lshift,lshift,1,415.64,0.2,1.332
2025-10-10T08:41:48.254,57,2,7,>>>>>,>,1,slash,slash,1,348.74,0.2,1.326
2025-10-10T08:41:49.903,58,2,8,>>>>>,>,1,slash,slash,1,333.57,0.2,1.286
2025-10-10T08:41:51.603,59,2,9,<<<<<,<,1,lshift,lshift,1,400.03,0.2,1.326
2025-10-10T08:41:53.682,60,2,10,>><>>,<,0,lshift,slash,0,714.63,0.2,1.307
2025-10-10T08:41:55.681,61,2,11,>><>>,<,0,lshift,slash,0,632.82,0.2,1.249
2025-10-10T08:41:57.496,62,2,12,<<<<<,<,1,lshift,lshift,1,466.25,0.2,1.266
2025-10-10T08:41:59.295,63,2,13,<<><<,>,0,slash,slash,1,414.55,0.2,1.258
2025-10-10T08:42:01.193,64,2,14,>><>>,<,0,lshift,slash,0,550.31,0.2,1.363
2025-10-10T08:42:03.192,65,2,15,>><>>,<,0,lshift,lshift,1,616.89,0.2,1.382
2025-10-10T08:42:04.923,66,2,16,<<><<,>,0,slash,lshift,0,383.16,0.2,1.213
2025-10-10T08:42:06.688,67,2,17,<<<<<,<,1,lshift,lshift,1,431.83,0.2,1.359
2025-10-10T08:42:08.537,68,2,18,>><>>,<,0,lshift,lshift,1,450.03,0.2,1.202
2025-10-10T08:42:10.418,69,2,19,>><>>,<,0,lshift,lshift,1,564.57,0.2,1.365
2025-10-10T08:42:12.218,70,2,20,>>>>>,>,1,slash,slash,1,417.0,0.2,1.389
2025-10-10T08:42:13.832,71,2,21,<<><<,>,0,slash,lshift,0,382.9,0.2,1.274
2025-10-10T08:42:15.613,72,2,22,>><>>,<,0,lshift,lshift,1,449.14,0.2,1.377
2025-10-10T08:42:17.246,73,2,23,>>>>>,>,1,slash,slash,1,382.49,0.2,1.242
2025-10-10T08:42:19.011,74,2,24,<<><<,>,0,slash,lshift,0,383.66,0.2,1.251
2025-10-10T08:42:20.694,75,2,25,>>>>>,>,1,slash,slash,1,383.54,0.2,1.253
2025-10-10T08:42:22.425,76,2,26,<<><<,>,0,slash,lshift,0,382.45,0.2,1.204
2025-10-10T08:42:24.206,77,2,27,<<<<<,<,1,lshift,lshift,1,515.21,0.2,1.328
2025-10-10T08:42:25.905,78,2,28,<<><<,>,0,slash,slash,1,465.7,0.2,1.304
2025-10-10T08:42:27.621,79,2,29,>>>>>,>,1,slash,slash,1,383.19,0.2,1.235
2025-10-10T08:42:29.302,80,2,30,>>>>>,>,1,slash,slash,1,366.12,0.2,1.214
2025-10-10T08:42:31.167,81,2,31,>><>>,<,0,lshift,lshift,1,466.36,0.2,1.204
2025-10-10T08:42:32.799,82,2,32,>>>>>,>,1,slash,slash,1,382.67,0.2,1.336
2025-10-10T08:42:34.565,83,2,33,>>>>>,>,1,slash,slash,1,349.84,0.2,1.319
2025-10-10T08:42:36.329,84,2,34,>><>>,<,0,lshift,slash,0,414.41,0.2,1.277
2025-10-10T08:42:38.110,85,2,35,<<<<<,<,1,lshift,lshift,1,399.57,0.2,1.395
2025-10-10T08:42:39.827,86,2,36,>>>>>,>,1,slash,slash,1,366.24,0.2,1.309
2025-10-10T08:42:41.525,87,2,37,>>>>>,>,1,slash,slash,1,365.69,0.2,1.351
2025-10-10T08:42:43.389,88,2,38,>><>>,<,0,lshift,lshift,1,466.28,0.2,1.292
2025-10-10T08:42:45.138,89,2,39,<<><<,>,0,slash,slash,1,399.52,0.2,1.243
2025-10-10T08:42:46.854,90,2,40,>>>>>,>,1,slash,slash,1,334.26,0.2,1.37
2025-10-10T08:42:48.668,91,2,41,<<<<<,<,1,lshift,lshift,1,516.22,0.2,1.321
2025-10-10T08:42:50.334,92,2,42,<<><<,>,0,slash,slash,1,433.62,0.2,1.214
2025-10-10T08:42:52.166,93,2,43,<<><<,>,0,slash,lshift,0,399.46,0.2,1.393
2025-10-10T08:42:53.847,94,2,44,>>>>>,>,1,slash,slash,1,398.07,0.2,1.292
2025-10-10T08:42:55.563,95,2,45,<<<<<,<,1,lshift,lshift,1,366.26,0.2,1.219
2025-10-10T08:42:57.277,96,2,46,<<><<,>,0,slash,lshift,0,348.9,0.2,1.391
2025-10-10T08:42:58.942,97,2,47,<<<<<,<,1,lshift,lshift,1,432.93,0.2,1.26
2025-10-10T08:43:00.758,98,2,48,>><>>,<,0,lshift,lshift,1,432.77,0.2,1.291
2025-10-10T08:43:02.373,99,2,49,<<<<<,<,1,lshift,lshift,1,350.49,0.2,1.315
2025-10-10T08:43:04.005,100,2,50,<<><<,>,0,slash,lshift,0,348.5,0.2,1.384
2025-10-10T08:43:10.599,101,3,1,>>>>>,>,1,slash,slash,1,715.78,0.2,1.226
2025-10-10T08:43:12.382,102,3,2,<<><<,>,0,slash,slash,1,533.71,0.2,1.228
2025-10-10T08:43:14.197,103,3,3,<<<<<,<,1,lshift,lshift,1,433.24,0.2,1.303
2025-10-10T08:43:15.928,104,3,4,<<><<,>,0,slash,slash,1,466.14,0.2,1.274
2025-10-10T08:43:17.577,105,3,5,>>>>>,>,1,slash,slash,1,399.77,0.2,1.231
2025-10-10T08:43:19.358,106,3,6,>><>>,<,0,lshift,lshift,1,464.84,0.2,1.261
2025-10-10T08:43:21.158,107,3,7,>>>>>,>,1,slash,slash,1,399.16,0.2,1.244
2025-10-10T08:43:22.922,108,3,8,<<><<,>,0,slash,slash,1,466.45,0.2,1.297
2025-10-10T08:43:24.641,109,3,9,<<><<,>,0,slash,slash,1,419.85,0.2,1.262
2025-10-10T08:43:26.519,110,3,10,>><>>,<,0,lshift,lshift,1,500.47,0.2,1.326
2025-10-10T08:43:28.333,111,3,11,>>>>>,>,1,slash,slash,1,515.11,0.2,1.221
2025-10-10T08:43:30.082,112,3,12,>><>>,<,0,lshift,lshift,1,448.6,0.2,1.239
2025-10-10T08:43:31.864,113,3,13,<<<<<,<,1,lshift,lshift,1,431.59,0.2,1.216
2025-10-10T08:43:33.645,114,3,14,>>>>>,>,1,slash,slash,1,382.87,0.2,1.384
2025-10-10T08:43:35.396,115,3,15,<<><<,>,0,slash,lshift,0,383.53,0.2,1.369
2025-10-10T08:43:37.193,116,3,16,>><>>,<,0,lshift,lshift,1,500.1,0.2,1.332
2025-10-10T08:43:38.975,117,3,17,>>>>>,>,1,slash,slash,1,417.57,0.2,1.249
2025-10-10T08:43:40.790,118,3,18,<<><<,>,0,slash,slash,1,483.22,0.2,1.314
2025-10-10T08:43:42.588,119,3,19,>><>>,<,0,lshift,lshift,1,524.68,0.2,1.289
2025-10-10T08:43:44.286,120,3,20,<<<<<,<,1,lshift,lshift,1,465.06,0.2,1.204
2025-10-10T08:43:45.969,121,3,21,<<<<<,<,1,lshift,lshift,1,382.99,0.2,1.223
2025-10-10T08:43:47.666,122,3,22,<<<<<,<,1,lshift,lshift,1,465.99,0.2,1.247
2025-10-10T08:43:49.466,123,3,23,<<><<,>,0,slash,lshift,0,482.89,0.2,1.378
2025-10-10T08:43:51.314,124,3,24,>><>>,<,0,lshift,lshift,1,582.96,0.2,1.323
2025-10-10T08:43:53.179,125,3,25,>><>>,<,0,lshift,lshift,1,598.98,0.2,1.253
2025-10-10T08:43:55.027,126,3,26,>>>>>,>,1,slash,slash,1,549.82,0.2,1.355
2025-10-10T08:43:56.892,127,3,27,>><>>,<,0,lshift,lshift,1,449.84,0.2,1.21
2025-10-10T08:43:58.808,128,3,28,<<><<,>,0,slash,slash,1,516.73,0.2,1.213
2025-10-10T08:44:00.605,129,3,29,>>>>>,>,1,slash,slash,1,432.05,0.2,1.319
2025-10-10T08:44:02.421,130,3,30,<<<<<,<,1,lshift,lshift,1,399.68,0.2,1.384
2025-10-10T08:44:04.253,131,3,31,>>>>>,>,1,slash,slash,1,483.31,0.2,1.239
2025-10-10T08:44:05.952,132,3,32,>>>>>,>,1,slash,slash,1,417.4,0.2,1.208
2025-10-10T08:44:07.834,133,3,33,>><>>,<,0,lshift,lshift,1,500.59,0.2,1.354
2025-10-10T08:44:09.565,134,3,34,>>>>>,>,1,slash,slash,1,466.16,0.2,1.248
2025-10-10T08:44:11.479,135,3,35,<<><<,>,0,slash,slash,1,614.99,0.2,1.367
2025-10-10T08:44:13.412,136,3,36,<<><<,>,0,slash,slash,1,533.83,0.2,1.259
2025-10-10T08:44:15.078,137,3,37,>><>>,<,0,lshift,lshift,1,434.23,0.2,1.375
2025-10-10T08:44:16.842,138,3,38,>><>>,<,0,lshift,lshift,1,433.61,0.2,1.329
2025-10-10T08:44:18.640,139,3,39,<<<<<,<,1,lshift,lshift,1,416.61,0.2,1.316
2025-10-10T08:44:20.288,140,3,40,>>>>>,>,1,slash,slash,1,382.09,0.2,1.379
2025-10-10T08:44:21.955,141,3,41,<<<<<,<,1,lshift,lshift,1,383.15,0.2,1.29
2025-10-10T08:44:23.718,142,3,42,<<<<<,<,1,lshift,lshift,1,350.23,0.2,1.386
2025-10-10T08:44:25.400,143,3,43,<<><<,>,0,slash,slash,1,432.19,0.2,1.245
2025-10-10T08:44:27.099,144,3,44,>><>>,<,0,lshift,lshift,1,448.35,0.2,1.279
2025-10-10T08:44:28.863,145,3,45,<<><<,>,0,slash,slash,1,433.17,0.2,1.255
2025-10-10T08:44:30.630,146,3,46,<<><<,>,0,slash,slash,1,399.79,0.2,1.278
2025-10-10T08:44:32.444,147,3,47,<<<<<,<,1,lshift,lshift,1,399.67,0.2,1.22
2025-10-10T08:44:34.162,148,3,48,>>>>>,>,1,slash,slash,1,367.79,0.2,1.378
2025-10-10T08:44:36.091,149,3,49,<<<<<,<,1,lshift,lshift,1,515.03,0.2,1.387
2025-10-10T08:44:37.789,150,3,50,<<<<<,<,1,lshift,lshift,1,382.61,0.2,1.206
2025-10-10T08:44:42.852,151,4,1,>>>>>,>,1,slash,slash,1,349.7,0.2,1.362
2025-10-10T08:44:44.536,152,4,2,<<><<,>,0,slash,slash,1,451.77,0.2,1.399
2025-10-10T08:44:46.265,153,4,3,<<><<,>,0,slash,slash,1,416.5,0.2,1.361
2025-10-10T08:44:48.031,154,4,4,>><>>,<,0,lshift,lshift,1,449.47,0.2,1.367
2025-10-10T08:44:49.747,155,4,5,<<<<<,<,1,lshift,lshift,1,384.72,0.2,1.212
2025-10-10T08:44:51.445,156,4,6,<<<<<,<,1,lshift,lshift,1,333.29,0.2,1.29
2025-10-10T08:44:52.993,157,4,7,<<<<<,<,1,lshift,lshift,1,315.1,0.2,1.226
2025-10-10T08:44:54.625,158,4,8,>>>>>,>,1,slash,slash,1,333.19,0.2,1.259
2025-10-10T08:44:56.207,159,4,9,>>>>>,>,1,slash,slash,1,299.61,0.2,1.298
2025-10-10T08:44:57.839,160,4,10,>>>>>,>,1,slash,lshift,0,332.46,0.2,1.318
2025-10-10T08:44:59.521,161,4,11,>><>>,<,0,lshift,slash,0,316.59,0.2,1.353
2025-10-10T08:45:01.271,162,4,12,<<><<,>,0,slash,slash,1,499.64,0.2,1.307
2025-10-10T08:45:02.868,163,4,13,<<><<,>,0,slash,slash,1,266.58,0.2,1.349
2025-10-10T08:45:04.666,164,4,14,>><>>,<,0,lshift,slash,0,382.89,0.2,1.246
2025-10-10T08:45:06.316,165,4,15,>>>>>,>,1,slash,slash,1,400.0,0.2,1.209
2025-10-10T08:45:08.047,166,4,16,<<><<,>,0,slash,lshift,0,416.08,0.2,1.31
2025-10-10T08:45:09.779,167,4,17,>>>>>,>,1,slash,slash,1,466.31,0.2,1.231
2025-10-10T08:45:11.660,168,4,18,<<><<,>,0,slash,slash,1,465.77,0.2,1.225
2025-10-10T08:45:13.277,169,4,19,>>>>>,>,1,slash,slash,1,350.47,0.2,1.396
2025-10-10T08:45:15.008,170,4,20,>>>>>,>,1,slash,slash,1,331.32,0.2,1.273
2025-10-10T08:45:16.673,171,4,21,<<<<<,<,1,lshift,lshift,1,332.37,0.2,1.314
2025-10-10T08:45:18.304,172,4,22,<<<<<,<,1,lshift,lshift,1,332.8,0.2,1.256
2025-10-10T08:45:20.138,173,4,23,>>>>>,>,1,slash,lshift,0,583.73,0.2,1.267
2025-10-10T08:45:21.801,174,4,24,>><>>,<,0,lshift,lshift,1,415.08,0.2,1.3
2025-10-10T08:45:23.468,175,4,25,<<><<,>,0,slash,lshift,0,367.76,0.2,1.239
2025-10-10T08:45:25.248,176,4,26,<<><<,>,0,slash,slash,1,431.82,0.2,1.312
2025-10-10T08:45:26.913,177,4,27,>><>>,<,0,lshift,lshift,1,415.49,0.2,1.375
2025-10-10T08:45:28.711,178,4,28,>><>>,<,0,lshift,lshift,1,397.8,0.2,1.367
2025-10-10T08:45:30.427,179,4,29,<<<<<,<,1,lshift,lshift,1,382.31,0.2,1.325
2025-10-10T08:45:32.077,180,4,30,<<<<<,<,1,lshift,lshift,1,368.08,0.2,1.353
2025-10-10T08:45:33.775,181,4,31,>>>>>,>,1,slash,slash,1,334.35,0.2,1.226
2025-10-10T08:45:35.507,182,4,32,<<<<<,<,1,lshift,lshift,1,499.93,0.2,1.348
2025-10-10T08:45:37.337,183,4,33,<<><<,>,0,slash,slash,1,549.19,0.2,1.245
2025-10-10T08:45:39.055,184,4,34,>><>>,<,0,lshift,slash,0,368.46,0.2,1.327
2025-10-10T08:45:40.751,185,4,35,<<><<,>,0,slash,slash,1,431.4,0.2,1.342
2025-10-10T08:45:42.517,186,4,36,>><>>,<,0,lshift,slash,0,432.49,0.2,1.289
2025-10-10T08:45:44.149,187,4,37,>>>>>,>,1,slash,slash,1,367.25,0.2,1.323
2025-10-10T08:45:45.831,188,4,38,>><>>,<,0,lshift,lshift,1,450.54,0.2,1.342
2025-10-10T08:45:47.614,189,4,39,<<<<<,<,1,lshift,lshift,1,451.05,0.2,1.393
2025-10-10T08:45:49.312,190,4,40,<<><<,>,0,slash,slash,1,434.58,0.2,1.326
2025-10-10T08:45:51.425,191,4,41,<<><<,>,0,slash,slash,1,748.51,0.2,1.268
2025-10-10T08:45:53.174,192,4,42,<<<<<,<,1,lshift,lshift,1,383.3,0.2,1.272
2025-10-10T08:45:54.774,193,4,43,>>>>>,>,1,slash,slash,1,300.44,0.2,1.34
2025-10-10T08:45:56.587,194,4,44,>>>>>,>,1,slash,slash,1,399.56,0.2,1.326
2025-10-10T08:45:58.352,195,4,45,>><>>,<,0,lshift,lshift,1,432.2,0.2,1.339
2025-10-10T08:46:00.067,196,4,46,<<><<,>,0,slash,slash,1,333.39,0.2,1.212
2025-10-10T08:46:01.766,197,4,47,<<<<<,<,1,lshift,lshift,1,416.18,0.2,1.213
2025-10-10T08:46:03.481,198,4,48,>><>>,<,0,lshift,slash,0,348.3,0.2,1.333
2025-10-10T08:46:05.264,199,4,49,>><>>,<,0,lshift,lshift,1,416.77,0.2,1.229
2025-10-10T08:46:07.028,200,4,50,<<<<<,<,1,lshift,lshift,1,416.56,0.2,1.339
2025-10-10T08:46:10.908,201,5,1,<<><<,>,0,slash,slash,1,531.27,0.2,1.384
2025-10-10T08:46:12.575,202,5,2,<<><<,>,0,slash,lshift,0,317.02,0.2,1.332
2025-10-10T08:46:14.272,203,5,3,<<<<<,<,1,lshift,lshift,1,448.16,0.2,1.274
2025-10-10T08:46:16.004,204,5,4,>><>>,<,0,lshift,lshift,1,450.08,0.2,1.297
2025-10-10T08:46:17.804,205,5,5,<<><<,>,0,slash,slash,1,435.08,0.2,1.344
2025-10-10T08:46:19.536,206,5,6,<<<<<,<,1,lshift,lshift,1,434.11,0.2,1.342
2025-10-10T08:46:21.083,207,5,7,<<<<<,<,1,lshift,lshift,1,300.58,0.2,1.239
2025-10-10T08:46:22.698,208,5,8,<<><<,>,0,slash,lshift,0,316.18,0.2,1.358
2025-10-10T08:46:24.598,209,5,9,>><>>,<,0,lshift,slash,0,482.91,0.2,1.326
2025-10-10T08:46:26.346,210,5,10,<<<<<,<,1,lshift,lshift,1,334.02,0.2,1.245
2025-10-10T08:46:28.043,211,5,11,<<<<<,<,1,lshift,lshift,1,299.45,0.2,1.399
2025-10-10T08:46:29.775,212,5,12,>>>>>,>,1,slash,slash,1,365.82,0.2,1.395
2025-10-10T08:46:31.424,213,5,13,<<><<,>,0,slash,slash,1,399.61,0.2,1.376
2025-10-10T08:46:33.157,214,5,14,<<<<<,<,1,lshift,lshift,1,383.26,0.2,1.336
2025-10-10T08:46:34.756,215,5,15,>>>>>,>,1,slash,slash,1,368.28,0.2,1.223
2025-10-10T08:46:36.487,216,5,16,>>>>>,>,1,slash,slash,1,399.86,0.2,1.378
2025-10-10T08:46:38.186,217,5,17,>><>>,<,0,lshift,lshift,1,399.13,0.2,1.393
2025-10-10T08:46:39.767,218,5,18,<<<<<,<,1,lshift,lshift,1,317.26,0.2,1.389
2025-10-10T08:46:41.566,219,5,19,<<><<,>,0,slash,slash,1,417.55,0.2,1.36
2025-10-10T08:46:43.264,220,5,20,>><>>,<,0,lshift,lshift,1,466.28,0.2,1.215
2025-10-10T08:46:45.111,221,5,21,>><>>,<,0,lshift,lshift,1,432.2,0.2,1.222
2025-10-10T08:46:46.761,222,5,22,>>>>>,>,1,slash,lshift,0,283.36,0.2,1.329
2025-10-10T08:46:48.675,223,5,23,<<><<,>,0,slash,lshift,0,582.37,0.2,1.324
2025-10-10T08:46:50.357,224,5,24,>><>>,<,0,lshift,slash,0,415.3,0.2,1.271
2025-10-10T08:46:52.240,225,5,25,>><>>,<,0,lshift,lshift,1,500.73,0.2,1.285
2025-10-10T08:46:53.956,226,5,26,>>>>>,>,1,slash,slash,1,335.14,0.2,1.393
2025-10-10T08:46:55.671,227,5,27,<<><<,>,0,slash,lshift,0,399.48,0.2,1.302
2025-10-10T08:46:57.303,228,5,28,>>>>>,>,1,slash,slash,1,383.69,0.2,1.239
2025-10-10T08:46:59.018,229,5,29,<<><<,>,0,slash,lshift,0,399.72,0.2,1.278
2025-10-10T08:47:00.648,230,5,30,>>>>>,>,1,slash,slash,1,382.86,0.2,1.205
2025-10-10T08:47:02.365,231,5,31,>><>>,<,0,lshift,lshift,1,334.27,0.2,1.306
2025-10-10T08:47:03.930,232,5,32,>>>>>,>,1,slash,slash,1,334.69,0.2,1.376
2025-10-10T08:47:05.577,233,5,33,>>>>>,>,1,slash,slash,1,316.27,0.2,1.359
2025-10-10T08:47:07.194,234,5,34,>><>>,<,0,lshift,slash,0,382.83,0.2,1.351
2025-10-10T08:47:08.808,235,5,35,>>>>>,>,1,slash,lshift,0,299.8,0.2,1.3
2025-10-10T08:47:10.591,236,5,36,>><>>,<,0,lshift,lshift,1,501.02,0.2,1.34
2025-10-10T08:47:12.222,237,5,37,<<><<,>,0,slash,slash,1,366.84,0.2,1.349
2025-10-10T08:47:13.937,238,5,38,<<><<,>,0,slash,lshift,0,382.65,0.2,1.217
2025-10-10T08:47:15.635,239,5,39,>>>>>,>,1,slash,slash,1,365.49,0.2,1.307
2025-10-10T08:47:17.300,240,5,40,<<<<<,<,1,lshift,lshift,1,399.59,0.2,1.243
2025-10-10T08:47:19.234,241,5,41,<<><<,>,0,slash,slash,1,583.77,0.2,1.208
2025-10-10T08:47:20.848,242,5,42,>><>>,<,0,lshift,slash,0,349.05,0.2,1.29
2025-10-10T08:47:22.447,243,5,43,<<<<<,<,1,lshift,lshift,1,299.4,0.2,1.262
2025-10-10T08:47:24.094,244,5,44,>>>>>,>,1,slash,slash,1,382.78,0.2,1.399
2025-10-10T08:47:25.929,245,5,45,<<<<<,<,1,lshift,lshift,1,435.93,0.2,1.272
2025-10-10T08:47:27.741,246,5,46,<<<<<,<,1,lshift,lshift,1,399.84,0.2,1.275
2025-10-10T08:47:29.573,247,5,47,>><>>,<,0,lshift,slash,0,414.24,0.2,1.397
2025-10-10T08:47:31.306,248,5,48,<<><<,>,0,slash,lshift,0,367.71,0.2,1.337
2025-10-10T08:47:33.120,249,5,49,<<<<<,<,1,lshift,lshift,1,516.24,0.2,1.378
2025-10-10T08:47:34.903,250,5,50,>>>>>,>,1,slash,slash,1,350.82,0.2,1.306
2025-10-10T08:47:43.396,251,6,1,<<<<<,<,1,lshift,lshift,1,383.33,0.2,1.373
2025-10-10T08:47:45.110,252,6,2,>>>>>,>,1,slash,slash,1,365.01,0.2,1.387
2025-10-10T08:47:46.725,253,6,3,<<<<<,<,1,lshift,lshift,1,366.13,0.2,1.221
2025-10-10T08:47:48.342,254,6,4,>><>>,<,0,lshift,slash,0,382.87,0.2,1.357
2025-10-10T08:47:50.072,255,6,5,<<<<<,<,1,lshift,lshift,1,331.6,0.2,1.218
2025-10-10T08:47:51.705,256,6,6,>>>>>,>,1,slash,slash,1,350.29,0.2,1.386
2025-10-10T08:47:53.269,257,6,7,>>>>>,>,1,slash,slash,1,300.07,0.2,1.261
2025-10-10T08:47:54.935,258,6,8,>>>>>,>,1,slash,slash,1,333.65,0.2,1.225
2025-10-10T08:47:56.632,259,6,9,>>>>>,>,1,slash,slash,1,333.31,0.2,1.228
2025-10-10T08:47:58.348,260,6,10,>><>>,<,0,lshift,slash,0,299.82,0.2,1.29
2025-10-10T08:47:59.930,261,6,11,<<<<<,<,1,lshift,lshift,1,349.16,0.2,1.4
2025-10-10T08:48:01.829,262,6,12,>><>>,<,0,lshift,lshift,1,499.78,0.2,1.325
2025-10-10T08:48:03.627,263,6,13,<<<<<,<,1,lshift,lshift,1,400.09,0.2,1.328
2025-10-10T08:48:05.377,264,6,14,<<><<,>,0,slash,slash,1,417.74,0.2,1.241
2025-10-10T08:48:07.075,265,6,15,<<><<,>,0,slash,lshift,0,384.28,0.2,1.223
2025-10-10T08:48:08.889,266,6,16,<<><<,>,0,slash,slash,1,432.34,0.2,1.271
2025-10-10T08:48:10.471,267,6,17,<<><<,>,0,slash,slash,1,331.32,0.2,1.335
2025-10-10T08:48:12.186,268,6,18,<<><<,>,0,slash,lshift,0,448.58,0.2,1.301
2025-10-10T08:48:13.918,269,6,19,<<<<<,<,1,lshift,lshift,1,466.5,0.2,1.344
2025-10-10T08:48:15.851,270,6,20,<<><<,>,0,slash,slash,1,617.87,0.2,1.364
2025-10-10T08:48:17.598,271,6,21,>><>>,<,0,lshift,slash,0,365.44,0.2,1.364
2025-10-10T08:48:19.396,272,6,22,<<<<<,<,1,lshift,lshift,1,383.57,0.2,1.334
2025-10-10T08:48:21.147,273,6,23,>>>>>,>,1,slash,slash,1,385.06,0.2,1.379
2025-10-10T08:48:22.944,274,6,24,>><>>,<,0,lshift,lshift,1,482.98,0.2,1.387
2025-10-10T08:48:24.708,275,6,25,<<><<,>,0,slash,slash,1,499.36,0.2,1.391
2025-10-10T08:48:26.591,276,6,26,>><>>,<,0,lshift,lshift,1,633.76,0.2,1.275
2025-10-10T08:48:28.456,277,6,27,<<<<<,<,1,lshift,lshift,1,533.76,0.2,1.287
2025-10-10T08:48:30.270,278,6,28,>><>>,<,0,lshift,lshift,1,483.13,0.2,1.29
2025-10-10T08:48:32.152,279,6,29,<<><<,>,0,slash,slash,1,516.73,0.2,1.394
2025-10-10T08:48:33.967,280,6,30,>><>>,<,0,lshift,lshift,1,466.19,0.2,1.289
2025-10-10T08:48:35.800,281,6,31,<<><<,>,0,slash,slash,1,468.11,0.2,1.22
2025-10-10T08:48:37.582,282,6,32,>>>>>,>,1,slash,slash,1,550.94,0.2,1.235
2025-10-10T08:48:39.345,283,6,33,>>>>>,>,1,slash,slash,1,432.91,0.2,1.303
2025-10-10T08:48:41.095,284,6,34,>>>>>,>,1,slash,slash,1,350.71,0.2,1.229
2025-10-10T08:48:42.910,285,6,35,<<><<,>,0,slash,slash,1,567.33,0.2,1.382
2025-10-10T08:48:44.608,286,6,36,>>>>>,>,1,slash,slash,1,399.69,0.2,1.363
2025-10-10T08:48:46.322,287,6,37,<<<<<,<,1,lshift,lshift,1,399.99,0.2,1.201
2025-10-10T08:48:48.006,288,6,38,<<<<<,<,1,lshift,lshift,1,383.44,0.2,1.276
2025-10-10T08:48:49.753,289,6,39,>>>>>,>,1,slash,slash,1,399.89,0.2,1.256
2025-10-10T08:48:51.520,290,6,40,<<><<,>,0,slash,lshift,0,466.49,0.2,1.236
2025-10-10T08:48:53.300,291,6,41,>><>>,<,0,lshift,slash,0,483.0,0.2,1.317
2025-10-10T08:48:55.033,292,6,42,<<><<,>,0,slash,lshift,0,417.37,0.2,1.212
2025-10-10T08:48:56.631,293,6,43,>><>>,<,0,lshift,slash,0,316.71,0.2,1.301
2025-10-10T08:48:58.329,294,6,44,<<><<,>,0,slash,slash,1,381.75,0.2,1.352
2025-10-10T08:49:00.145,295,6,45,<<<<<,<,1,lshift,lshift,1,400.14,0.2,1.397
2025-10-10T08:49:01.910,296,6,46,<<<<<,<,1,lshift,lshift,1,467.88,0.2,1.362
2025-10-10T08:49:03.542,297,6,47,>>>>>,>,1,slash,slash,1,365.89,0.2,1.208
2025-10-10T08:49:05.107,298,6,48,>>>>>,>,1,slash,slash,1,316.75,0.2,1.21
2025-10-10T08:49:06.854,299,6,49,>><>>,<,0,lshift,lshift,1,448.38,0.2,1.387
2025-10-10T08:49:08.586,300,6,50,>><>>,<,0,lshift,slash,0,382.89,0.2,1.23
2025-10-10T08:49:14.181,301,7,1,<<><<,>,0,slash,slash,1,499.42,0.2,1.235
2025-10-10T08:49:15.846,302,7,2,<<><<,>,0,slash,slash,1,332.59,0.2,1.238
2025-10-10T08:49:17.546,303,7,3,>>>>>,>,1,slash,slash,1,399.83,0.2,1.29
2025-10-10T08:49:19.262,304,7,4,<<<<<,<,1,lshift,lshift,1,367.04,0.2,1.237
2025-10-10T08:49:20.976,305,7,5,>><>>,<,0,lshift,slash,0,315.53,0.2,1.373
2025-10-10T08:49:22.708,306,7,6,>><>>,<,0,lshift,lshift,1,414.72,0.2,1.374
2025-10-10T08:49:24.458,307,7,7,>><>>,<,0,lshift,slash,0,383.27,0.2,1.228
2025-10-10T08:49:26.122,308,7,8,<<><<,>,0,slash,slash,1,400.62,0.2,1.368
2025-10-10T08:49:27.837,309,7,9,<<<<<,<,1,lshift,lshift,1,383.09,0.2,1.378
2025-10-10T08:49:29.570,310,7,10,<<><<,>,0,slash,slash,1,368.29,0.2,1.201
2025-10-10T08:49:31.283,311,7,11,<<<<<,<,1,lshift,lshift,1,415.04,0.2,1.362
2025-10-10T08:49:32.932,312,7,12,>><>>,<,0,lshift,slash,0,350.35,0.2,1.325
2025-10-10T08:49:34.614,313,7,13,>><>>,<,0,lshift,lshift,1,333.22,0.2,1.301
2025-10-10T08:49:36.462,314,7,14,>>>>>,>,1,slash,slash,1,431.69,0.2,1.351
2025-10-10T08:49:38.195,315,7,15,>>>>>,>,1,slash,slash,1,467.14,0.2,1.257
2025-10-10T08:49:39.944,316,7,16,>>>>>,>,1,slash,slash,1,367.49,0.2,1.316
2025-10-10T08:49:41.840,317,7,17,<<><<,>,0,slash,slash,1,499.61,0.2,1.217
2025-10-10T08:49:43.457,318,7,18,>>>>>,>,1,slash,slash,1,367.4,0.2,1.389
2025-10-10T08:49:45.088,319,7,19,>><>>,<,0,lshift,slash,0,316.41,0.2,1.248
2025-10-10T08:49:46.720,320,7,20,<<<<<,<,1,lshift,lshift,1,283.55,0.2,1.352
2025-10-10T08:49:48.685,321,7,21,<<><<,>,0,slash,slash,1,583.0,0.2,1.216
2025-10-10T08:49:50.434,322,7,22,<<<<<,<,1,lshift,lshift,1,448.84,0.2,1.268
2025-10-10T08:49:52.084,323,7,23,<<><<,>,0,slash,slash,1,383.5,0.2,1.302
2025-10-10T08:49:53.997,324,7,24,>><>>,<,0,lshift,lshift,1,500.09,0.2,1.217
2025-10-10T08:49:55.862,325,7,25,<<><<,>,0,slash,slash,1,449.3,0.2,1.242
2025-10-10T08:49:57.495,326,7,26,<<<<<,<,1,lshift,lshift,1,368.02,0.2,1.259
2025-10-10T08:49:59.177,327,7,27,>>>>>,>,1,slash,slash,1,366.29,0.2,1.355
2025-10-10T08:50:00.975,328,7,28,<<><<,>,0,slash,lshift,0,398.84,0.2,1.352
2025-10-10T08:50:02.689,329,7,29,<<><<,>,0,slash,slash,1,332.96,0.2,1.353
2025-10-10T08:50:04.389,330,7,30,>><>>,<,0,lshift,slash,0,383.32,0.2,1.365
2025-10-10T08:50:06.188,331,7,31,<<><<,>,0,slash,slash,1,516.23,0.2,1.234
2025-10-10T08:50:07.868,332,7,32,>>>>>,>,1,slash,slash,1,333.27,0.2,1.286
2025-10-10T08:50:09.602,333,7,33,>>>>>,>,1,slash,slash,1,368.46,0.2,1.213
2025-10-10T08:50:11.632,334,7,34,>><>>,<,0,lshift,lshift,1,715.31,0.2,1.392
2025-10-10T08:50:13.282,335,7,35,>><>>,<,0,lshift,slash,0,416.72,0.2,1.301
2025-10-10T08:50:15.095,336,7,36,>>>>>,>,1,slash,slash,1,415.19,0.2,1.366
2025-10-10T08:50:16.843,337,7,37,>><>>,<,0,lshift,lshift,1,399.59,0.2,1.396
2025-10-10T08:50:18.642,338,7,38,<<<<<,<,1,lshift,lshift,1,399.65,0.2,1.369
2025-10-10T08:50:20.325,339,7,39,>>>>>,>,1,slash,slash,1,432.31,0.2,1.251
2025-10-10T08:50:22.140,340,7,40,>>>>>,>,1,slash,slash,1,533.45,0.2,1.248
2025-10-10T08:50:24.087,341,7,41,<<><<,>,0,slash,lshift,0,532.84,0.2,1.37
2025-10-10T08:50:25.903,342,7,42,<<<<<,<,1,lshift,lshift,1,515.33,0.2,1.317
2025-10-10T08:50:27.634,343,7,43,<<<<<,<,1,lshift,lshift,1,432.79,0.2,1.307
2025-10-10T08:50:29.283,344,7,44,<<<<<,<,1,lshift,lshift,1,366.44,0.2,1.391
2025-10-10T08:50:31.214,345,7,45,>>>>>,>,1,slash,lshift,0,516.58,0.2,1.289
2025-10-10T08:50:32.831,346,7,46,<<><<,>,0,slash,lshift,0,382.31,0.2,1.353
2025-10-10T08:50:34.661,347,7,47,<<<<<,<,1,lshift,lshift,1,499.38,0.2,1.243
2025-10-10T08:50:36.795,348,7,48,>><>>,<,0,lshift,slash,0,784.17,0.2,1.373
2025-10-10T08:50:38.475,349,7,49,>>>>>,>,1,slash,slash,1,432.16,0.2,1.285
2025-10-10T08:50:40.308,350,7,50,<<<<<,<,1,lshift,lshift,1,450.5,0.2,1.248
2025-10-10T08:50:49.565,351,8,1,<<<<<,<,1,lshift,lshift,1,483.1,0.2,1.244
2025-10-10T08:50:51.446,352,8,2,>><>>,<,0,lshift,lshift,1,481.81,0.2,1.346
2025-10-10T08:50:53.245,353,8,3,<<><<,>,0,slash,slash,1,431.86,0.2,1.288
2025-10-10T08:50:54.945,354,8,4,<<<<<,<,1,lshift,lshift,1,366.44,0.2,1.302
2025-10-10T08:50:56.559,355,8,5,>>>>>,>,1,slash,slash,1,366.46,0.2,1.266
2025-10-10T08:50:58.359,356,8,6,<<><<,>,0,slash,slash,1,417.43,0.2,1.289
2025-10-10T08:50:59.940,357,8,7,>>>>>,>,1,slash,slash,1,350.1,0.2,1.225
2025-10-10T08:51:01.655,358,8,8,>>>>>,>,1,slash,slash,1,366.49,0.2,1.266
2025-10-10T08:51:03.436,359,8,9,<<><<,>,0,slash,slash,1,532.82,0.2,1.315
2025-10-10T08:51:05.235,360,8,10,>>>>>,>,1,slash,slash,1,399.96,0.2,1.335
2025-10-10T08:51:07.017,361,8,11,<<><<,>,0,slash,slash,1,482.77,0.2,1.364
2025-10-10T08:51:08.864,362,8,12,>><>>,<,0,lshift,slash,0,431.77,0.2,1.263
2025-10-10T08:51:10.597,363,8,13,<<<<<,<,1,lshift,lshift,1,398.83,0.2,1.242
2025-10-10T08:51:12.330,364,8,14,<<><<,>,0,slash,slash,1,467.88,0.2,1.239
2025-10-10T08:51:13.960,365,8,15,>>>>>,>,1,slash,slash,1,382.98,0.2,1.341
2025-10-10T08:51:15.709,366,8,16,>><>>,<,0,lshift,lshift,1,515.2,0.2,1.346
2025-10-10T08:51:17.425,367,8,17,<<<<<,<,1,lshift,lshift,1,417.44,0.2,1.359
2025-10-10T08:51:19.357,368,8,18,>><>>,<,0,lshift,lshift,1,534.46,0.2,1.386
2025-10-10T08:51:21.005,369,8,19,>>>>>,>,1,slash,slash,1,382.67,0.2,1.275
2025-10-10T08:51:22.820,370,8,20,<<><<,>,0,slash,slash,1,549.67,0.2,1.206
2025-10-10T08:51:24.585,371,8,21,<<<<<,<,1,lshift,lshift,1,366.59,0.2,1.226
2025-10-10T08:51:26.234,372,8,22,>>>>>,>,1,slash,slash,1,417.39,0.2,1.249
2025-10-10T08:51:27.982,373,8,23,>>>>>,>,1,slash,slash,1,332.6,0.2,1.326
2025-10-10T08:51:29.898,374,8,24,>><>>,<,0,lshift,lshift,1,583.04,0.2,1.245
2025-10-10T08:51:31.662,375,8,25,<<><<,>,0,slash,slash,1,398.74,0.2,1.203
2025-10-10T08:51:33.610,376,8,26,>><>>,<,0,lshift,lshift,1,582.97,0.2,1.214
2025-10-10T08:51:35.260,377,8,27,>>>>>,>,1,slash,slash,1,384.83,0.2,1.281
2025-10-10T08:51:37.057,378,8,28,<<<<<,<,1,lshift,lshift,1,382.96,0.2,1.301
2025-10-10T08:51:38.873,379,8,29,>><>>,<,0,lshift,slash,0,399.8,0.2,1.362
2025-10-10T08:51:40.622,380,8,30,>>>>>,>,1,slash,slash,1,383.29,0.2,1.355
2025-10-10T08:51:42.303,381,8,31,<<<<<,<,1,lshift,lshift,1,399.23,0.2,1.286
2025-10-10T08:51:44.052,382,8,32,<<><<,>,0,slash,slash,1,417.73,0.2,1.338
2025-10-10T08:51:45.717,383,8,33,>>>>>,>,1,slash,slash,1,350.3,0.2,1.37
2025-10-10T08:51:47.398,384,8,34,>><>>,<,0,lshift,lshift,1,399.39,0.2,1.399
2025-10-10T08:51:49.081,385,8,35,<<><<,>,0,slash,slash,1,399.05,0.2,1.29
2025-10-10T08:51:50.895,386,8,36,<<<<<,<,1,lshift,lshift,1,433.17,0.2,1.347
2025-10-10T08:51:52.610,387,8,37,<<><<,>,0,slash,slash,1,414.79,0.2,1.24
2025-10-10T08:51:54.392,388,8,38,<<><<,>,0,slash,slash,1,532.09,0.2,1.261
2025-10-10T08:51:56.124,389,8,39,>>>>>,>,1,slash,slash,1,332.09,0.2,1.321
2025-10-10T08:51:57.872,390,8,40,<<<<<,<,1,lshift,lshift,1,465.96,0.2,1.363
2025-10-10T08:51:59.571,391,8,41,>>>>>,>,1,slash,slash,1,382.79,0.2,1.388
2025-10-10T08:52:01.302,392,8,42,>><>>,<,0,lshift,slash,0,316.37,0.2,1.398
2025-10-10T08:52:03.201,393,8,43,>><>>,<,0,lshift,lshift,1,483.11,0.2,1.253
2025-10-10T08:52:05.133,394,8,44,<<<<<,<,1,lshift,lshift,1,550.13,0.2,1.398
2025-10-10T08:52:07.148,395,8,45,>><>>,<,0,lshift,lshift,1,598.29,0.2,1.27
2025-10-10T08:52:08.863,396,8,46,<<<<<,<,1,lshift,lshift,1,400.52,0.2,1.269
2025-10-10T08:52:10.729,397,8,47,<<><<,>,0,slash,slash,1,499.82,0.2,1.353
2025-10-10T08:52:12.493,398,8,48,<<<<<,<,1,lshift,lshift,1,416.77,0.2,1.256
2025-10-10T08:52:14.375,399,8,49,>><>>,<,0,lshift,lshift,1,631.78,0.2,1.291
2025-10-10T08:52:16.207,400,8,50,<<><<,>,0,slash,slash,1,583.03,0.2,1.385
2025-10-10T08:52:29.795,401,9,1,<<><<,>,0,slash,slash,1,666.55,0.2,1.242
2025-10-10T08:52:31.577,402,9,2,<<<<<,<,1,lshift,lshift,1,382.05,0.2,1.303
2025-10-10T08:52:33.242,403,9,3,>><>>,<,0,lshift,lshift,1,382.98,0.2,1.229
2025-10-10T08:52:35.089,404,9,4,<<><<,>,0,slash,slash,1,432.76,0.2,1.234
2025-10-10T08:52:36.672,405,9,5,>>>>>,>,1,slash,slash,1,315.99,0.2,1.316
2025-10-10T08:52:38.372,406,9,6,>><>>,<,0,lshift,lshift,1,434.28,0.2,1.203
2025-10-10T08:52:40.152,407,9,7,>><>>,<,0,lshift,lshift,1,449.88,0.2,1.382
2025-10-10T08:52:42.000,408,9,8,<<<<<,<,1,lshift,lshift,1,448.57,0.2,1.273
2025-10-10T08:52:43.666,409,9,9,<<<<<,<,1,lshift,lshift,1,365.47,0.2,1.394
2025-10-10T08:52:45.498,410,9,10,>><>>,<,0,lshift,lshift,1,515.27,0.2,1.298
2025-10-10T08:52:47.215,411,9,11,>>>>>,>,1,slash,slash,1,418.76,0.2,1.23
2025-10-10T08:52:48.912,412,9,12,<<<<<,<,1,lshift,lshift,1,383.84,0.2,1.244
2025-10-10T08:52:50.527,413,9,13,<<<<<,<,1,lshift,lshift,1,334.16,0.2,1.322
2025-10-10T08:52:52.259,414,9,14,<<><<,>,0,slash,slash,1,450.82,0.2,1.383
2025-10-10T08:52:54.140,415,9,15,<<<<<,<,1,lshift,lshift,1,466.54,0.2,1.317
2025-10-10T08:52:55.904,416,9,16,<<<<<,<,1,lshift,lshift,1,366.21,0.2,1.282
2025-10-10T08:52:57.720,417,9,17,>>>>>,>,1,slash,slash,1,398.48,0.2,1.246
2025-10-10T08:52:59.353,418,9,18,>>>>>,>,1,slash,slash,1,350.72,0.2,1.316
2025-10-10T08:53:01.051,419,9,19,>>>>>,>,1,slash,slash,1,315.29,0.2,1.263
2025-10-10T08:53:02.732,420,9,20,>>>>>,>,1,slash,slash,1,333.06,0.2,1.273
2025-10-10T08:53:04.432,421,9,21,<<><<,>,0,slash,slash,1,367.61,0.2,1.359
2025-10-10T08:53:06.196,422,9,22,<<><<,>,0,slash,lshift,0,450.0,0.2,1.374
2025-10-10T08:53:08.028,423,9,23,>><>>,<,0,lshift,slash,0,433.91,0.2,1.215
2025-10-10T08:53:09.877,424,9,24,>><>>,<,0,lshift,lshift,1,533.44,0.2,1.391
2025-10-10T08:53:11.543,425,9,25,>><>>,<,0,lshift,slash,0,417.57,0.2,1.362
2025-10-10T08:53:13.323,426,9,26,<<><<,>,0,slash,lshift,0,366.52,0.2,1.322
2025-10-10T08:53:15.072,427,9,27,>>>>>,>,1,slash,slash,1,366.78,0.2,1.388
2025-10-10T08:53:16.888,428,9,28,<<<<<,<,1,lshift,lshift,1,417.52,0.2,1.291
2025-10-10T08:53:18.602,429,9,29,<<<<<,<,1,lshift,lshift,1,398.38,0.2,1.383
2025-10-10T08:53:20.435,430,9,30,<<<<<,<,1,lshift,lshift,1,434.47,0.2,1.398
2025-10-10T08:53:22.149,431,9,31,<<><<,>,0,slash,lshift,0,432.06,0.2,1.381
2025-10-10T08:53:23.882,432,9,32,<<><<,>,0,slash,slash,1,351.01,0.2,1.239
2025-10-10T08:53:25.479,433,9,33,>>>>>,>,1,slash,slash,1,366.91,0.2,1.254
2025-10-10T08:53:27.179,434,9,34,>><>>,<,0,lshift,slash,0,334.46,0.2,1.327
2025-10-10T08:53:28.927,435,9,35,>>>>>,>,1,slash,slash,1,365.41,0.2,1.26
2025-10-10T08:53:30.741,436,9,36,>><>>,<,0,lshift,lshift,1,583.01,0.2,1.338
2025-10-10T08:53:32.423,437,9,37,<<><<,>,0,slash,slash,1,416.47,0.2,1.383
2025-10-10T08:53:34.205,438,9,38,>><>>,<,0,lshift,lshift,1,548.76,0.2,1.356
2025-10-10T08:53:35.923,439,9,39,<<><<,>,0,slash,slash,1,452.49,0.2,1.216
2025-10-10T08:53:37.753,440,9,40,>>>>>,>,1,slash,slash,1,417.12,0.2,1.257
2025-10-10T08:53:39.501,441,9,41,<<><<,>,0,slash,lshift,0,399.64,0.2,1.217
2025-10-10T08:53:41.267,442,9,42,>><>>,<,0,lshift,lshift,1,534.04,0.2,1.345
2025-10-10T08:53:43.031,443,9,43,<<<<<,<,1,lshift,lshift,1,465.97,0.2,1.369
2025-10-10T08:53:44.779,444,9,44,<<><<,>,0,slash,slash,1,398.87,0.2,1.343
2025-10-10T08:53:46.428,445,9,45,>>>>>,>,1,slash,slash,1,384.31,0.2,1.383
2025-10-10T08:53:48.227,446,9,46,<<<<<,<,1,lshift,lshift,1,416.59,0.2,1.381
2025-10-10T08:53:49.958,447,9,47,>><>>,<,0,lshift,lshift,1,483.15,0.2,1.318
2025-10-10T08:53:51.607,448,9,48,<<><<,>,0,slash,slash,1,415.22,0.2,1.306
2025-10-10T08:53:53.322,449,9,49,>>>>>,>,1,slash,slash,1,451.2,0.2,1.28
2025-10-10T08:53:54.988,450,9,50,>>>>>,>,1,slash,slash,1,300.53,0.2,1.316
2025-10-10T08:54:00.066,451,10,1,<<<<<,<,1,lshift,lshift,1,416.24,0.2,1.297
2025-10-10T08:54:01.748,452,10,2,<<><<,>,0,slash,slash,1,367.41,0.2,1.321
2025-10-10T08:54:03.496,453,10,3,>><>>,<,0,lshift,slash,0,383.09,0.2,1.299
2025-10-10T08:54:05.211,454,10,4,<<><<,>,0,slash,lshift,0,431.7,0.2,1.391
2025-10-10T08:54:06.960,455,10,5,>><>>,<,0,lshift,lshift,1,415.86,0.2,1.354
2025-10-10T08:54:08.709,456,10,6,<<<<<,<,1,lshift,lshift,1,351.28,0.2,1.363
2025-10-10T08:54:10.490,457,10,7,>>>>>,>,1,slash,slash,1,416.8,0.2,1.252
2025-10-10T08:54:12.289,458,10,8,>><>>,<,0,lshift,lshift,1,399.93,0.2,1.295
2025-10-10T08:54:14.104,459,10,9,<<><<,>,0,slash,lshift,0,417.04,0.2,1.272
2025-10-10T08:54:15.853,460,10,10,>><>>,<,0,lshift,lshift,1,450.57,0.2,1.33
2025-10-10T08:54:17.650,461,10,11,<<><<,>,0,slash,lshift,0,415.99,0.2,1.284
2025-10-10T08:54:19.631,462,10,12,<<><<,>,0,slash,slash,1,565.94,0.2,1.374
2025-10-10T08:54:21.249,463,10,13,<<<<<,<,1,lshift,lshift,1,367.86,0.2,1.39
2025-10-10T08:54:22.913,464,10,14,>><>>,<,0,lshift,slash,0,333.81,0.2,1.303
2025-10-10T08:54:24.661,465,10,15,<<<<<,<,1,lshift,lshift,1,399.43,0.2,1.275
2025-10-10T08:54:26.360,466,10,16,>><>>,<,0,lshift,slash,0,334.09,0.2,1.385
2025-10-10T08:54:28.142,467,10,17,>>>>>,>,1,slash,slash,1,366.89,0.2,1.323
2025-10-10T08:54:29.822,468,10,18,<<<<<,<,1,lshift,lshift,1,366.52,0.2,1.383
2025-10-10T08:54:31.455,469,10,19,>><>>,<,0,lshift,slash,0,333.16,0.2,1.203
2025-10-10T08:54:33.203,470,10,20,<<<<<,<,1,lshift,lshift,1,365.8,0.2,1.385
2025-10-10T08:54:35.003,471,10,21,>><>>,<,0,lshift,lshift,1,533.13,0.2,1.223
2025-10-10T08:54:36.868,472,10,22,<<><<,>,0,slash,slash,1,467.67,0.2,1.243
2025-10-10T08:54:38.749,473,10,23,<<<<<,<,1,lshift,lshift,1,466.35,0.2,1.341
2025-10-10T08:54:40.431,474,10,24,>>>>>,>,1,slash,slash,1,448.22,0.2,1.271
2025-10-10T08:54:42.231,475,10,25,<<><<,>,0,slash,slash,1,450.6,0.2,1.375
2025-10-10T08:54:43.845,476,10,26,>>>>>,>,1,slash,slash,1,350.5,0.2,1.338
2025-10-10T08:54:45.526,477,10,27,<<<<<,<,1,lshift,lshift,1,417.33,0.2,1.289
2025-10-10T08:54:47.175,478,10,28,>>>>>,>,1,slash,slash,1,383.27,0.2,1.297
2025-10-10T08:54:49.074,479,10,29,>><>>,<,0,lshift,lshift,1,599.06,0.2,1.32
2025-10-10T08:54:51.005,480,10,30,<<><<,>,0,slash,slash,1,582.84,0.2,1.31
2025-10-10T08:54:52.786,481,10,31,>>>>>,>,1,slash,slash,1,449.98,0.2,1.223
2025-10-10T08:54:54.586,482,10,32,>>>>>,>,1,slash,slash,1,417.89,0.2,1.284
2025-10-10T08:54:56.267,483,10,33,>>>>>,>,1,slash,slash,1,383.04,0.2,1.218
2025-10-10T08:54:58.066,484,10,34,<<<<<,<,1,lshift,lshift,1,401.4,0.2,1.363
2025-10-10T08:54:59.880,485,10,35,<<><<,>,0,slash,slash,1,482.87,0.2,1.241
2025-10-10T08:55:01.762,486,10,36,<<><<,>,0,slash,slash,1,532.06,0.2,1.351
2025-10-10T08:55:03.411,487,10,37,<<><<,>,0,slash,slash,1,417.15,0.2,1.249
2025-10-10T08:55:05.042,488,10,38,>>>>>,>,1,slash,slash,1,383.35,0.2,1.292
2025-10-10T08:55:06.874,489,10,39,>><>>,<,0,lshift,lshift,1,399.81,0.2,1.201
2025-10-10T08:55:08.573,490,10,40,<<><<,>,0,slash,slash,1,465.55,0.2,1.372
2025-10-10T08:55:10.489,491,10,41,>><>>,<,0,lshift,lshift,1,499.25,0.2,1.302
2025-10-10T08:55:12.254,492,10,42,<<><<,>,0,slash,slash,1,416.46,0.2,1.273
2025-10-10T08:55:14.103,493,10,43,>>>>>,>,1,slash,slash,1,434.86,0.2,1.298
2025-10-10T08:55:15.784,494,10,44,<<<<<,<,1,lshift,lshift,1,417.12,0.2,1.353
2025-10-10T08:55:17.482,495,10,45,>>>>>,>,1,slash,slash,1,350.61,0.2,1.279
2025-10-10T08:55:19.263,496,10,46,>><>>,<,0,lshift,lshift,1,450.17,0.2,1.222
2025-10-10T08:55:20.896,497,10,47,>>>>>,>,1,slash,slash,1,367.41,0.2,1.303
2025-10-10T08:55:22.494,498,10,48,>>>>>,>,1,slash,slash,1,366.61,0.2,1.23
2025-10-10T08:55:24.459,499,10,49,<<<<<,<,1,lshift,lshift,1,615.15,0.2,1.23
2025-10-10T08:55:26.141,500,10,50,<<<<<,<,1,lshift,lshift,1,399.64,0.2,1.278
2025-10-10T08:56:09.753,501,11,1,>><>>,<,0,lshift,lshift,1,666.42,0.2,1.265
2025-10-10T08:56:11.485,502,11,2,<<><<,>,0,slash,slash,1,483.92,0.2,1.249
2025-10-10T08:56:13.082,503,11,3,>>>>>,>,1,slash,slash,1,348.68,0.2,1.337
2025-10-10T08:56:14.732,504,11,4,>>>>>,>,1,slash,slash,1,382.99,0.2,1.347
2025-10-10T08:56:16.330,505,11,5,>><>>,<,0,lshift,lshift,1,365.4,0.2,1.384
2025-10-10T08:56:17.929,506,11,6,<<><<,>,0,slash,slash,1,332.0,0.2,1.234
2025-10-10T08:56:19.677,507,11,7,>><>>,<,0,lshift,lshift,1,465.95,0.2,1.275
2025-10-10T08:56:21.276,508,11,8,<<><<,>,0,slash,slash,1,366.74,0.2,1.27
2025-10-10T08:56:23.108,509,11,9,>>>>>,>,1,slash,slash,1,366.47,0.2,1.363
2025-10-10T08:56:24.873,510,11,10,>>>>>,>,1,slash,slash,1,349.94,0.2,1.397
2025-10-10T08:56:26.805,511,11,11,<<><<,>,0,slash,slash,1,582.9,0.2,1.285
2025-10-10T08:56:28.469,512,11,12,<<><<,>,0,slash,slash,1,415.93,0.2,1.202
2025-10-10T08:56:30.119,513,11,13,>>>>>,>,1,slash,slash,1,300.03,0.2,1.378
2025-10-10T08:56:31.833,514,11,14,>><>>,<,0,lshift,lshift,1,466.51,0.2,1.218
2025-10-10T08:56:33.582,515,11,15,>><>>,<,0,lshift,slash,0,331.01,0.2,1.315
2025-10-10T08:56:35.363,516,11,16,>><>>,<,0,lshift,lshift,1,382.88,0.2,1.305
2025-10-10T08:56:37.046,517,11,17,>>>>>,>,1,slash,slash,1,350.71,0.2,1.392
2025-10-10T08:56:38.629,518,11,18,<<<<<,<,1,lshift,lshift,1,334.3,0.2,1.344
2025-10-10T08:56:40.293,519,11,19,>><>>,<,0,lshift,slash,0,349.71,0.2,1.245
2025-10-10T08:56:42.008,520,11,20,<<><<,>,0,slash,slash,1,431.98,0.2,1.254
2025-10-10T08:56:43.623,521,11,21,>>>>>,>,1,slash,slash,1,333.59,0.2,1.279
2025-10-10T08:56:45.208,522,11,22,>>>>>,>,1,slash,slash,1,319.15,0.2,1.261
2025-10-10T08:56:46.937,523,11,23,>><>>,<,0,lshift,lshift,1,417.11,0.2,1.393
2025-10-10T08:56:48.837,524,11,24,>><>>,<,0,lshift,lshift,1,567.37,0.2,1.37
2025-10-10T08:56:50.502,525,11,25,>><>>,<,0,lshift,lshift,1,368.17,0.2,1.385
2025-10-10T08:56:52.249,526,11,26,<<><<,>,0,slash,slash,1,416.49,0.2,1.309
2025-10-10T08:56:54.064,527,11,27,<<<<<,<,1,lshift,lshift,1,450.12,0.2,1.241
2025-10-10T08:56:55.712,528,11,28,>>>>>,>,1,slash,slash,1,415.05,0.2,1.279
2025-10-10T08:56:57.445,529,11,29,>>>>>,>,1,slash,slash,1,417.71,0.2,1.213
2025-10-10T08:56:59.126,530,11,30,<<<<<,<,1,lshift,lshift,1,382.36,0.2,1.284
2025-10-10T08:57:00.858,531,11,31,<<><<,>,0,slash,slash,1,366.43,0.2,1.321
2025-10-10T08:57:02.606,532,11,32,<<<<<,<,1,lshift,lshift,1,398.62,0.2,1.355
2025-10-10T08:57:04.422,533,11,33,<<><<,>,0,slash,lshift,0,465.56,0.2,1.251
2025-10-10T08:57:06.386,534,11,34,<<><<,>,0,slash,slash,1,548.39,0.2,1.26
2025-10-10T08:57:08.104,535,11,35,>>>>>,>,1,slash,slash,1,369.25,0.2,1.297
2025-10-10T08:57:09.983,536,11,36,<<><<,>,0,slash,slash,1,466.0,0.2,1.384
2025-10-10T08:57:11.817,537,11,37,<<<<<,<,1,lshift,lshift,1,417.29,0.2,1.264
2025-10-10T08:57:13.648,538,11,38,>><>>,<,0,lshift,lshift,1,433.99,0.2,1.282
2025-10-10T08:57:15.280,539,11,39,>>>>>,>,1,slash,slash,1,316.79,0.2,1.361
2025-10-10T08:57:16.961,540,11,40,>>>>>,>,1,slash,slash,1,300.3,0.2,1.228
2025-10-10T08:57:18.710,541,11,41,>><>>,<,0,lshift,lshift,1,399.06,0.2,1.369
2025-10-10T08:57:20.359,542,11,42,<<<<<,<,1,lshift,slash,0,351.07,0.2,1.342
2025-10-10T08:57:22.108,543,11,43,<<<<<,<,1,lshift,lshift,1,466.78,0.2,1.279
2025-10-10T08:57:23.690,544,11,44,<<<<<,<,1,lshift,lshift,1,301.02,0.2,1.238
2025-10-10T08:57:25.303,545,11,45,<<<<<,<,1,lshift,lshift,1,331.78,0.2,1.388
2025-10-10T08:57:26.987,546,11,46,<<<<<,<,1,lshift,lshift,1,334.68,0.2,1.269
2025-10-10T08:57:28.718,547,11,47,<<<<<,<,1,lshift,lshift,1,316.24,0.2,1.269
2025-10-10T08:57:30.484,548,11,48,<<><<,>,0,slash,slash,1,400.49,0.2,1.26
2025-10-10T08:57:32.213,549,11,49,<<<<<,<,1,lshift,lshift,1,348.48,0.2,1.266
2025-10-10T08:57:34.079,550,11,50,<<><<,>,0,slash,slash,1,516.46,0.2,1.386
2025-10-10T08:57:39.125,551,12,1,>>>>>,>,1,slash,slash,1,400.1,0.2,1.331
2025-10-10T08:57:40.841,552,12,2,<<<<<,<,1,lshift,lshift,1,434.62,0.2,1.291
2025-10-10T08:57:42.438,553,12,3,>>>>>,>,1,slash,slash,1,348.98,0.2,1.389
2025-10-10T08:57:44.121,554,12,4,>>>>>,>,1,slash,slash,1,317.03,0.2,1.284
2025-10-10T08:57:45.835,555,12,5,<<><<,>,0,slash,lshift,0,382.82,0.2,1.263
2025-10-10T08:57:47.568,556,12,6,<<><<,>,0,slash,slash,1,350.88,0.2,1.233
2025-10-10T08:57:49.267,557,12,7,<<><<,>,0,slash,slash,1,350.77,0.2,1.34
2025-10-10T08:57:50.933,558,12,8,<<><<,>,0,slash,slash,1,251.35,0.2,1.228
2025-10-10T08:57:52.680,559,12,9,>><>>,<,0,lshift,lshift,1,432.08,0.2,1.322
2025-10-10T08:57:54.278,560,12,10,<<><<,>,0,slash,slash,1,281.39,0.2,1.293
2025-10-10T08:57:55.927,561,12,11,<<><<,>,0,slash,slash,1,399.97,0.2,1.377
2025-10-10T08:57:57.475,562,12,12,>><>>,<,0,lshift,slash,0,265.68,0.2,1.256
2025-10-10T08:57:59.140,563,12,13,>>>>>,>,1,slash,slash,1,331.87,0.2,1.241
2025-10-10T08:58:00.889,564,12,14,<<><<,>,0,slash,slash,1,348.8,0.2,1.27
2025-10-10T08:58:02.455,565,12,15,>>>>>,>,1,slash,slash,1,316.85,0.2,1.285
2025-10-10T08:58:04.037,566,12,16,>>>>>,>,1,slash,slash,1,316.13,0.2,1.247
2025-10-10T08:58:05.534,567,12,17,>>>>>,>,1,slash,slash,1,266.76,0.2,1.384
2025-10-10T08:58:07.334,568,12,18,<<<<<,<,1,lshift,lshift,1,450.45,0.2,1.397
2025-10-10T08:58:08.966,569,12,19,<<><<,>,0,slash,lshift,0,350.42,0.2,1.382
2025-10-10T08:58:10.882,570,12,20,>><>>,<,0,lshift,slash,0,551.26,0.2,1.311
2025-10-10T08:58:12.495,571,12,21,<<<<<,<,1,lshift,slash,0,1146787.37,0.2,1.326
2025-10-10T08:58:14.244,572,12,22,>>>>>,>,1,slash,slash,1,516.02,0.2,1.272
2025-10-10T08:58:15.843,573,12,23,>>>>>,>,1,slash,slash,1,367.44,0.2,1.24
2025-10-10T08:58:17.541,574,12,24,>><>>,<,0,lshift,lshift,1,431.97,0.2,1.211
2025-10-10T08:58:19.523,575,12,25,>><>>,<,0,lshift,lshift,1,682.69,0.2,1.351
2025-10-10T08:58:21.255,576,12,26,<<<<<,<,1,lshift,lshift,1,464.98,0.2,1.341
2025-10-10T08:58:23.054,577,12,27,<<<<<,<,1,lshift,lshift,1,400.05,0.2,1.391
2025-10-10T08:58:24.752,578,12,28,>>>>>,>,1,slash,slash,1,450.08,0.2,1.333
2025-10-10T08:58:26.467,579,12,29,>><>>,<,0,lshift,slash,0,382.22,0.2,1.281
2025-10-10T08:58:28.216,580,12,30,>><>>,<,0,lshift,lshift,1,483.37,0.2,1.395
2025-10-10T08:58:30.013,581,12,31,<<><<,>,0,slash,slash,1,383.01,0.2,1.256
2025-10-10T08:58:31.629,582,12,32,<<><<,>,0,slash,lshift,0,332.2,0.2,1.374
2025-10-10T08:58:33.361,583,12,33,<<<<<,<,1,lshift,lshift,1,450.17,0.2,1.387
2025-10-10T08:58:35.144,584,12,34,<<><<,>,0,slash,slash,1,434.92,0.2,1.354
2025-10-10T08:58:36.925,585,12,35,<<<<<,<,1,lshift,lshift,1,400.05,0.2,1.387
2025-10-10T08:58:38.689,586,12,36,>>>>>,>,1,slash,slash,1,498.52,0.2,1.396
2025-10-10T08:58:40.320,587,12,37,<<<<<,<,1,lshift,lshift,1,349.51,0.2,1.201
2025-10-10T08:58:42.053,588,12,38,>><>>,<,0,lshift,slash,0,332.31,0.2,1.327
2025-10-10T08:58:43.718,589,12,39,<<<<<,<,1,lshift,lshift,1,314.86,0.2,1.242
2025-10-10T08:58:45.417,590,12,40,<<><<,>,0,slash,slash,1,424.19,0.2,1.31
2025-10-10T08:58:47.049,591,12,41,>><>>,<,0,lshift,lshift,1,333.63,0.2,1.363
2025-10-10T08:58:48.764,592,12,42,<<<<<,<,1,lshift,lshift,1,399.91,0.2,1.201
2025-10-10T08:58:50.580,593,12,43,>><>>,<,0,lshift,lshift,1,484.61,0.2,1.201
2025-10-10T08:58:52.293,594,12,44,<<<<<,<,1,lshift,lshift,1,364.95,0.2,1.325
2025-10-10T08:58:53.927,595,12,45,>><>>,<,0,lshift,slash,0,367.01,0.2,1.357
2025-10-10T08:58:55.509,596,12,46,<<><<,>,0,slash,lshift,0,251.28,0.2,1.359
2025-10-10T08:58:57.439,597,12,47,>><>>,<,0,lshift,lshift,1,548.19,0.2,1.343
2025-10-10T08:58:59.139,598,12,48,>>>>>,>,1,slash,slash,1,417.16,0.2,1.338
2025-10-10T08:59:00.920,599,12,49,>>>>>,>,1,slash,slash,1,366.41,0.2,1.33
2025-10-10T08:59:02.586,600,12,50,<<<<<,<,1,lshift,lshift,1,416.39,0.2,1.229
