timestamp_iso,global_trial,block,trial_in_block,stimulus,center_dir,congruent,correct_key,resp_key,correct,rt_ms,stim_time_s,isi_s
2025-10-23T07:44:15.076,1,1,1,>>>>>,>,1,slash,slash,1,749.55,0.2,1.301
2025-10-23T07:44:17.157,2,1,2,<<><<,>,0,slash,slash,1,681.89,0.2,1.367
2025-10-23T07:44:19.121,3,1,3,>><>>,<,0,lshift,lshift,1,599.15,0.2,1.276
2025-10-23T07:44:21.070,4,1,4,<<><<,>,0,slash,slash,1,533.5,0.2,1.201
2025-10-23T07:44:22.968,5,1,5,>>>>>,>,1,slash,slash,1,566.43,0.2,1.255
2025-10-23T07:44:24.783,6,1,6,>><>>,<,0,lshift,lshift,1,566.86,0.2,1.337
2025-10-23T07:44:26.598,7,1,7,>>>>>,>,1,slash,slash,1,398.22,0.2,1.259
2025-10-23T07:44:28.629,8,1,8,<<><<,>,0,slash,slash,1,632.06,0.2,1.224
2025-10-23T07:44:30.328,9,1,9,<<<<<,<,1,lshift,lshift,1,381.73,0.2,1.359
2025-10-23T07:44:32.410,10,1,10,>>>>>,>,1,slash,slash,1,848.65,0.2,1.383
2025-10-23T07:44:34.342,11,1,11,<<><<,>,0,slash,slash,1,600.62,0.2,1.22
2025-10-23T07:44:36.239,12,1,12,<<<<<,<,1,lshift,lshift,1,614.84,0.2,1.384
2025-10-23T07:44:38.272,13,1,13,>><>>,<,0,lshift,lshift,1,700.66,0.2,1.345
2025-10-23T07:44:40.122,14,1,14,<<><<,>,0,slash,slash,1,500.96,0.2,1.204
2025-10-23T07:44:41.936,15,1,15,>>>>>,>,1,slash,slash,1,501.2,0.2,1.379
2025-10-23T07:44:43.783,16,1,16,>><>>,<,0,lshift,lshift,1,531.48,0.2,1.32
2025-10-23T07:44:45.716,17,1,17,>><>>,<,0,lshift,lshift,1,683.55,0.2,1.343
2025-10-23T07:44:47.514,18,1,18,<<><<,>,0,slash,slash,1,517.12,0.2,1.395
2025-10-23T07:44:49.280,19,1,19,<<><<,>,0,slash,slash,1,484.04,0.2,1.242
2025-10-23T07:44:51.110,20,1,20,>><>>,<,0,lshift,lshift,1,517.59,0.2,1.259
2025-10-23T07:44:52.892,21,1,21,>>>>>,>,1,slash,slash,1,466.95,0.2,1.254
2025-10-23T07:44:54.940,22,1,22,<<<<<,<,1,lshift,lshift,1,632.17,0.2,1.399
2025-10-23T07:44:56.688,23,1,23,<<<<<,<,1,lshift,lshift,1,466.32,0.2,1.382
2025-10-23T07:44:58.486,24,1,24,>><>>,<,0,lshift,lshift,1,549.63,0.2,1.319
2025-10-23T07:45:00.269,25,1,25,>>>>>,>,1,slash,slash,1,466.54,0.2,1.394
2025-10-23T07:45:01.951,26,1,26,<<<<<,<,1,lshift,lshift,1,450.86,0.2,1.39
2025-10-23T07:45:03.702,27,1,27,<<><<,>,0,slash,slash,1,385.68,0.2,1.348
2025-10-23T07:45:05.516,28,1,28,>>>>>,>,1,slash,slash,1,468.02,0.2,1.212
2025-10-23T07:45:07.296,29,1,29,>><>>,<,0,lshift,lshift,1,432.93,0.2,1.235
2025-10-23T07:45:09.045,30,1,30,>>>>>,>,1,slash,slash,1,367.43,0.2,1.33
2025-10-23T07:45:10.825,31,1,31,<<><<,>,0,slash,slash,1,481.06,0.2,1.391
2025-10-23T07:45:12.609,32,1,32,<<<<<,<,1,lshift,lshift,1,384.03,0.2,1.206
2025-10-23T07:45:14.290,33,1,33,>>>>>,>,1,slash,slash,1,414.82,0.2,1.364
2025-10-23T07:45:15.972,34,1,34,>><>>,<,0,lshift,lshift,1,433.49,0.2,1.265
2025-10-23T07:45:17.787,35,1,35,>><>>,<,0,lshift,lshift,1,415.98,0.2,1.284
2025-10-23T07:45:19.601,36,1,36,>>>>>,>,1,slash,slash,1,399.25,0.2,1.285
2025-10-23T07:45:21.401,37,1,37,>><>>,<,0,lshift,lshift,1,399.62,0.2,1.375
2025-10-23T07:45:23.248,38,1,38,<<<<<,<,1,lshift,lshift,1,431.61,0.2,1.299
2025-10-23T07:45:25.080,39,1,39,<<><<,>,0,slash,slash,1,447.88,0.2,1.21
2025-10-23T07:45:26.764,40,1,40,<<<<<,<,1,lshift,lshift,1,351.65,0.2,1.39
2025-10-23T07:45:28.511,41,1,41,<<<<<,<,1,lshift,lshift,1,432.49,0.2,1.344
2025-10-23T07:45:30.409,42,1,42,<<><<,>,0,slash,slash,1,498.77,0.2,1.399
2025-10-23T07:45:32.141,43,1,43,<<<<<,<,1,lshift,lshift,1,381.78,0.2,1.34
2025-10-23T07:45:34.005,44,1,44,<<><<,>,0,slash,slash,1,516.48,0.2,1.364
2025-10-23T07:45:35.822,45,1,45,<<<<<,<,1,lshift,lshift,1,417.56,0.2,1.316
2025-10-23T07:45:37.587,46,1,46,<<<<<,<,1,lshift,lshift,1,450.43,0.2,1.357
2025-10-23T07:45:39.284,47,1,47,>>>>>,>,1,slash,slash,1,416.53,0.2,1.293
2025-10-23T07:45:41.167,48,1,48,<<><<,>,0,slash,slash,1,483.78,0.2,1.275
2025-10-23T07:45:43.030,49,1,49,>><>>,<,0,lshift,lshift,1,481.75,0.2,1.395
2025-10-23T07:45:44.697,50,1,50,>>>>>,>,1,slash,slash,1,433.16,0.2,1.243
2025-10-23T07:45:54.721,51,2,1,>>>>>,>,1,slash,slash,1,466.95,0.2,1.378
2025-10-23T07:45:56.453,52,2,2,<<><<,>,0,slash,slash,1,433.18,0.2,1.333
2025-10-23T07:45:58.234,53,2,3,<<><<,>,0,slash,slash,1,432.98,0.2,1.227
2025-10-23T07:45:59.866,54,2,4,>><>>,<,0,lshift,lshift,1,399.04,0.2,1.261
2025-10-23T07:46:01.583,55,2,5,<<><<,>,0,slash,slash,1,467.63,0.2,1.338
2025-10-23T07:46:03.248,56,2,6,<<<<<,<,1,lshift,lshift,1,351.7,0.2,1.286
2025-10-23T07:46:04.912,57,2,7,<<<<<,<,1,lshift,lshift,1,416.26,0.2,1.272
2025-10-23T07:46:06.662,58,2,8,<<<<<,<,1,lshift,lshift,1,351.56,0.2,1.209
2025-10-23T07:46:08.411,59,2,9,<<><<,>,0,slash,slash,1,418.99,0.2,1.291
2025-10-23T07:46:10.158,60,2,10,>>>>>,>,1,slash,slash,1,400.25,0.2,1.253
2025-10-23T07:46:11.906,61,2,11,<<<<<,<,1,lshift,lshift,1,367.08,0.2,1.379
2025-10-23T07:46:13.523,62,2,12,<<><<,>,0,slash,slash,1,384.11,0.2,1.258
2025-10-23T07:46:15.071,63,2,13,<<<<<,<,1,lshift,lshift,1,267.1,0.2,1.211
2025-10-23T07:46:16.852,64,2,14,<<<<<,<,1,lshift,lshift,1,365.2,0.2,1.316
2025-10-23T07:46:18.652,65,2,15,>><>>,<,0,lshift,lshift,1,449.57,0.2,1.377
2025-10-23T07:46:20.415,66,2,16,<<<<<,<,1,lshift,lshift,1,365.98,0.2,1.24
2025-10-23T07:46:22.148,67,2,17,<<><<,>,0,slash,slash,1,399.71,0.2,1.289
2025-10-23T07:46:23.663,68,2,18,<<><<,>,0,slash,lshift,0,281.37,0.2,1.297
2025-10-23T07:46:25.444,69,2,19,<<<<<,<,1,lshift,lshift,1,382.31,0.2,1.235
2025-10-23T07:46:27.176,70,2,20,>>>>>,>,1,slash,slash,1,382.57,0.2,1.286
2025-10-23T07:46:28.791,71,2,21,>>>>>,>,1,slash,slash,1,348.82,0.2,1.383
2025-10-23T07:46:30.474,72,2,22,>>>>>,>,1,slash,slash,1,368.08,0.2,1.264
2025-10-23T07:46:32.290,73,2,23,<<><<,>,0,slash,slash,1,400.92,0.2,1.348
2025-10-23T07:46:34.087,74,2,24,>>>>>,>,1,slash,slash,1,399.63,0.2,1.281
2025-10-23T07:46:35.785,75,2,25,>><>>,<,0,lshift,lshift,1,399.65,0.2,1.287
2025-10-23T07:46:37.467,76,2,26,>><>>,<,0,lshift,lshift,1,432.86,0.2,1.217
2025-10-23T07:46:39.066,77,2,27,>>>>>,>,1,slash,slash,1,350.05,0.2,1.288
2025-10-23T07:46:40.832,78,2,28,>><>>,<,0,lshift,lshift,1,400.6,0.2,1.339
2025-10-23T07:46:42.647,79,2,29,<<><<,>,0,slash,slash,1,415.81,0.2,1.354
2025-10-23T07:46:44.278,80,2,30,>>>>>,>,1,slash,slash,1,382.57,0.2,1.325
2025-10-23T07:46:46.110,81,2,31,<<><<,>,0,slash,slash,1,550.2,0.2,1.254
2025-10-23T07:46:47.925,82,2,32,<<><<,>,0,slash,slash,1,399.22,0.2,1.306
2025-10-23T07:46:49.690,83,2,33,>><>>,<,0,lshift,lshift,1,433.12,0.2,1.338
2025-10-23T07:46:51.422,84,2,34,>>>>>,>,1,slash,slash,1,350.58,0.2,1.214
2025-10-23T07:46:53.204,85,2,35,>>>>>,>,1,slash,slash,1,366.99,0.2,1.391
2025-10-23T07:46:54.870,86,2,36,>><>>,<,0,lshift,lshift,1,401.89,0.2,1.289
2025-10-23T07:46:56.518,87,2,37,>>>>>,>,1,slash,slash,1,365.77,0.2,1.211
2025-10-23T07:46:58.265,88,2,38,<<<<<,<,1,lshift,lshift,1,383.36,0.2,1.257
2025-10-23T07:46:59.965,89,2,39,<<><<,>,0,slash,slash,1,432.83,0.2,1.237
2025-10-23T07:47:01.645,90,2,40,>>>>>,>,1,slash,slash,1,348.46,0.2,1.387
2025-10-23T07:47:03.311,91,2,41,<<<<<,<,1,lshift,lshift,1,366.81,0.2,1.384
2025-10-23T07:47:04.927,92,2,42,<<<<<,<,1,lshift,lshift,1,384.91,0.2,1.338
2025-10-23T07:47:06.745,93,2,43,>><>>,<,0,lshift,lshift,1,518.36,0.2,1.296
2025-10-23T07:47:08.423,94,2,44,>><>>,<,0,lshift,lshift,1,398.69,0.2,1.338
2025-10-23T07:47:10.105,95,2,45,>><>>,<,0,lshift,lshift,1,447.91,0.2,1.342
2025-10-23T07:47:12.037,96,2,46,>><>>,<,0,lshift,lshift,1,550.05,0.2,1.273
2025-10-23T07:47:13.805,97,2,47,<<<<<,<,1,lshift,lshift,1,368.78,0.2,1.229
2025-10-23T07:47:15.551,98,2,48,>><>>,<,0,lshift,lshift,1,450.19,0.2,1.388
2025-10-23T07:47:17.166,99,2,49,>>>>>,>,1,slash,slash,1,382.3,0.2,1.259
2025-10-23T07:47:18.899,100,2,50,<<><<,>,0,slash,slash,1,466.76,0.2,1.284
2025-10-23T07:47:26.375,101,3,1,<<<<<,<,1,lshift,lshift,1,364.83,0.2,1.316
2025-10-23T07:47:28.139,102,3,2,<<<<<,<,1,lshift,lshift,1,383.58,0.2,1.258
2025-10-23T07:47:29.874,103,3,3,<<><<,>,0,slash,slash,1,401.83,0.2,1.34
2025-10-23T07:47:31.553,104,3,4,<<><<,>,0,slash,lshift,0,332.67,0.2,1.217
2025-10-23T07:47:33.318,105,3,5,<<><<,>,0,slash,slash,1,433.41,0.2,1.343
2025-10-23T07:47:35.034,106,3,6,<<<<<,<,1,lshift,lshift,1,383.47,0.2,1.313
2025-10-23T07:47:36.800,107,3,7,>><>>,<,0,lshift,lshift,1,451.13,0.2,1.263
2025-10-23T07:47:38.546,108,3,8,<<<<<,<,1,lshift,lshift,1,348.09,0.2,1.352
2025-10-23T07:47:40.247,109,3,9,>><>>,<,0,lshift,lshift,1,451.06,0.2,1.25
2025-10-23T07:47:41.945,110,3,10,>><>>,<,0,lshift,lshift,1,367.9,0.2,1.317
2025-10-23T07:47:43.679,111,3,11,<<><<,>,0,slash,slash,1,434.46,0.2,1.256
2025-10-23T07:47:45.425,112,3,12,>><>>,<,0,lshift,lshift,1,416.53,0.2,1.368
2025-10-23T07:47:47.190,113,3,13,<<<<<,<,1,lshift,lshift,1,349.66,0.2,1.2
2025-10-23T07:47:48.956,114,3,14,>><>>,<,0,lshift,lshift,1,398.14,0.2,1.314
2025-10-23T07:47:50.603,115,3,15,>>>>>,>,1,slash,slash,1,366.44,0.2,1.266
2025-10-23T07:47:52.386,116,3,16,>><>>,<,0,lshift,lshift,1,384.46,0.2,1.371
2025-10-23T07:47:54.219,117,3,17,<<><<,>,0,slash,slash,1,433.14,0.2,1.216
2025-10-23T07:47:55.867,118,3,18,>><>>,<,0,lshift,lshift,1,416.11,0.2,1.386
2025-10-23T07:47:57.598,119,3,19,<<<<<,<,1,lshift,lshift,1,367.62,0.2,1.219
2025-10-23T07:47:59.329,120,3,20,<<><<,>,0,slash,slash,1,415.18,0.2,1.338
2025-10-23T07:48:00.960,121,3,21,<<<<<,<,1,lshift,lshift,1,333.16,0.2,1.362
2025-10-23T07:48:02.576,122,3,22,<<<<<,<,1,lshift,lshift,1,348.42,0.2,1.245
2025-10-23T07:48:04.191,123,3,23,<<><<,>,0,slash,lshift,0,365.26,0.2,1.328
2025-10-23T07:48:05.957,124,3,24,>><>>,<,0,lshift,lshift,1,415.84,0.2,1.375
2025-10-23T07:48:07.639,125,3,25,>>>>>,>,1,slash,slash,1,382.12,0.2,1.332
2025-10-23T07:48:09.337,126,3,26,<<<<<,<,1,lshift,lshift,1,348.1,0.2,1.346
2025-10-23T07:48:11.053,127,3,27,>>>>>,>,1,slash,slash,1,317.16,0.2,1.381
2025-10-23T07:48:12.818,128,3,28,<<><<,>,0,slash,slash,1,433.47,0.2,1.246
2025-10-23T07:48:14.599,129,3,29,>>>>>,>,1,slash,slash,1,399.59,0.2,1.288
2025-10-23T07:48:16.347,130,3,30,>>>>>,>,1,slash,slash,1,349.85,0.2,1.243
2025-10-23T07:48:17.929,131,3,31,<<<<<,<,1,lshift,lshift,1,349.86,0.2,1.239
2025-10-23T07:48:19.645,132,3,32,>>>>>,>,1,slash,slash,1,350.38,0.2,1.262
2025-10-23T07:48:21.377,133,3,33,<<><<,>,0,slash,slash,1,400.93,0.2,1.202
2025-10-23T07:48:23.142,134,3,34,>><>>,<,0,lshift,lshift,1,400.11,0.2,1.389
2025-10-23T07:48:24.874,135,3,35,>>>>>,>,1,slash,slash,1,317.28,0.2,1.278
2025-10-23T07:48:26.572,136,3,36,>>>>>,>,1,slash,slash,1,366.06,0.2,1.305
2025-10-23T07:48:28.171,137,3,37,>>>>>,>,1,slash,slash,1,349.15,0.2,1.201
2025-10-23T07:48:30.019,138,3,38,<<><<,>,0,slash,slash,1,433.54,0.2,1.26
2025-10-23T07:48:31.751,139,3,39,>>>>>,>,1,slash,slash,1,316.2,0.2,1.334
2025-10-23T07:48:33.500,140,3,40,>>>>>,>,1,slash,slash,1,351.36,0.2,1.371
2025-10-23T07:48:35.348,141,3,41,>><>>,<,0,lshift,lshift,1,433.23,0.2,1.386
2025-10-23T07:48:36.979,142,3,42,>>>>>,>,1,slash,slash,1,316.03,0.2,1.274
2025-10-23T07:48:38.647,143,3,43,>><>>,<,0,lshift,lshift,1,418.45,0.2,1.232
2025-10-23T07:48:40.310,144,3,44,<<><<,>,0,slash,slash,1,398.86,0.2,1.383
2025-10-23T07:48:41.892,145,3,45,>>>>>,>,1,slash,slash,1,333.71,0.2,1.367
2025-10-23T07:48:43.606,146,3,46,<<<<<,<,1,lshift,lshift,1,366.22,0.2,1.327
2025-10-23T07:48:45.289,147,3,47,<<><<,>,0,slash,slash,1,381.43,0.2,1.376
2025-10-23T07:48:46.905,148,3,48,<<<<<,<,1,lshift,lshift,1,367.26,0.2,1.213
2025-10-23T07:48:48.620,149,3,49,>><>>,<,0,lshift,slash,0,316.84,0.2,1.383
2025-10-23T07:48:50.417,150,3,50,<<><<,>,0,slash,slash,1,414.99,0.2,1.227
2025-10-23T07:48:56.880,151,4,1,<<<<<,<,1,lshift,lshift,1,432.12,0.2,1.288
2025-10-23T07:48:58.544,152,4,2,<<><<,>,0,slash,slash,1,416.02,0.2,1.215
2025-10-23T07:49:00.177,153,4,3,<<<<<,<,1,lshift,lshift,1,332.82,0.2,1.255
2025-10-23T07:49:01.892,154,4,4,<<><<,>,0,slash,lshift,0,399.69,0.2,1.2
2025-10-23T07:49:03.491,155,4,5,>>>>>,>,1,slash,slash,1,367.69,0.2,1.381
2025-10-23T07:49:05.172,156,4,6,>>>>>,>,1,slash,slash,1,350.75,0.2,1.39
2025-10-23T07:49:06.754,157,4,7,<<><<,>,0,slash,lshift,0,348.22,0.2,1.237
2025-10-23T07:49:08.519,158,4,8,>>>>>,>,1,slash,slash,1,398.66,0.2,1.376
2025-10-23T07:49:10.217,159,4,9,>><>>,<,0,lshift,lshift,1,466.56,0.2,1.307
2025-10-23T07:49:11.950,160,4,10,>><>>,<,0,lshift,slash,0,317.01,0.2,1.235
2025-10-23T07:49:13.764,161,4,11,>><>>,<,0,lshift,lshift,1,498.9,0.2,1.216
2025-10-23T07:49:15.531,162,4,12,>>>>>,>,1,slash,slash,1,367.69,0.2,1.262
2025-10-23T07:49:17.362,163,4,13,<<><<,>,0,slash,slash,1,451.01,0.2,1.215
2025-10-23T07:49:19.043,164,4,14,>>>>>,>,1,slash,slash,1,366.55,0.2,1.342
2025-10-23T07:49:20.741,165,4,15,>>>>>,>,1,slash,slash,1,381.75,0.2,1.34
2025-10-23T07:49:22.491,166,4,16,<<><<,>,0,slash,lshift,0,401.49,0.2,1.27
2025-10-23T07:49:24.121,167,4,17,<<<<<,<,1,lshift,lshift,1,399.13,0.2,1.247
2025-10-23T07:49:25.853,168,4,18,>>>>>,>,1,slash,slash,1,333.12,0.2,1.24
2025-10-23T07:49:27.654,169,4,19,<<><<,>,0,slash,slash,1,451.54,0.2,1.311
2025-10-23T07:49:29.266,170,4,20,>>>>>,>,1,slash,slash,1,382.57,0.2,1.307
2025-10-23T07:49:30.999,171,4,21,<<<<<,<,1,lshift,lshift,1,366.19,0.2,1.352
2025-10-23T07:49:32.747,172,4,22,>>>>>,>,1,slash,slash,1,349.51,0.2,1.393
2025-10-23T07:49:34.462,173,4,23,>><>>,<,0,lshift,lshift,1,447.25,0.2,1.253
2025-10-23T07:49:36.163,174,4,24,>><>>,<,0,lshift,lshift,1,447.8,0.2,1.335
2025-10-23T07:49:37.894,175,4,25,>>>>>,>,1,slash,slash,1,367.73,0.2,1.249
2025-10-23T07:49:39.758,176,4,26,<<><<,>,0,slash,slash,1,465.25,0.2,1.292
2025-10-23T07:49:41.390,177,4,27,<<<<<,<,1,lshift,lshift,1,398.99,0.2,1.3
2025-10-23T07:49:43.156,178,4,28,<<<<<,<,1,lshift,lshift,1,400.6,0.2,1.291
2025-10-23T07:49:44.881,179,4,29,<<<<<,<,1,lshift,lshift,1,410.39,0.2,1.341
2025-10-23T07:49:46.636,180,4,30,>>>>>,>,1,slash,slash,1,365.39,0.2,1.203
2025-10-23T07:49:48.317,181,4,31,<<<<<,<,1,lshift,lshift,1,448.56,0.2,1.389
2025-10-23T07:49:50.067,182,4,32,>><>>,<,0,lshift,lshift,1,482.33,0.2,1.322
2025-10-23T07:49:51.764,183,4,33,>><>>,<,0,lshift,slash,0,365.48,0.2,1.35
2025-10-23T07:49:53.446,184,4,34,<<><<,>,0,slash,slash,1,397.8,0.2,1.337
2025-10-23T07:49:55.211,185,4,35,<<<<<,<,1,lshift,lshift,1,366.24,0.2,1.203
2025-10-23T07:49:56.963,186,4,36,<<<<<,<,1,lshift,lshift,1,353.29,0.2,1.374
2025-10-23T07:49:58.708,187,4,37,>><>>,<,0,lshift,lshift,1,448.23,0.2,1.304
2025-10-23T07:50:00.558,188,4,38,<<><<,>,0,slash,slash,1,465.73,0.2,1.247
2025-10-23T07:50:02.357,189,4,39,>><>>,<,0,lshift,lshift,1,484.57,0.2,1.384
2025-10-23T07:50:04.103,190,4,40,<<<<<,<,1,lshift,lshift,1,399.54,0.2,1.327
2025-10-23T07:50:05.735,191,4,41,>><>>,<,0,lshift,lshift,1,381.93,0.2,1.264
2025-10-23T07:50:07.484,192,4,42,>>>>>,>,1,slash,slash,1,349.76,0.2,1.395
2025-10-23T07:50:09.266,193,4,43,<<><<,>,0,slash,slash,1,483.92,0.2,1.271
2025-10-23T07:50:10.965,194,4,44,<<><<,>,0,slash,slash,1,434.17,0.2,1.315
2025-10-23T07:50:12.612,195,4,45,<<<<<,<,1,lshift,lshift,1,348.73,0.2,1.268
2025-10-23T07:50:14.279,196,4,46,<<><<,>,0,slash,slash,1,417.96,0.2,1.267
2025-10-23T07:50:15.910,197,4,47,>>>>>,>,1,slash,slash,1,364.22,0.2,1.32
2025-10-23T07:50:17.642,198,4,48,>><>>,<,0,lshift,lshift,1,382.02,0.2,1.273
2025-10-23T07:50:19.375,199,4,49,>><>>,<,0,lshift,lshift,1,433.71,0.2,1.393
2025-10-23T07:50:21.222,200,4,50,<<><<,>,0,slash,slash,1,433.23,0.2,1.244
2025-10-23T07:50:33.030,201,5,1,>>>>>,>,1,slash,slash,1,417.09,0.2,1.206
2025-10-23T07:50:34.794,202,5,2,>><>>,<,0,lshift,lshift,1,498.41,0.2,1.284
2025-10-23T07:50:36.575,203,5,3,<<><<,>,0,slash,slash,1,382.41,0.2,1.36
2025-10-23T07:50:38.240,204,5,4,>>>>>,>,1,slash,slash,1,399.57,0.2,1.338
2025-10-23T07:50:39.921,205,5,5,>><>>,<,0,lshift,lshift,1,416.38,0.2,1.398
2025-10-23T07:50:41.589,206,5,6,<<<<<,<,1,lshift,lshift,1,351.36,0.2,1.363
2025-10-23T07:50:43.355,207,5,7,<<<<<,<,1,lshift,lshift,1,352.12,0.2,1.348
2025-10-23T07:50:45.168,208,5,8,<<><<,>,0,slash,slash,1,416.88,0.2,1.346
2025-10-23T07:50:46.917,209,5,9,>>>>>,>,1,slash,slash,1,383.33,0.2,1.389
2025-10-23T07:50:48.665,210,5,10,>>>>>,>,1,slash,slash,1,347.87,0.2,1.216
2025-10-23T07:50:50.346,211,5,11,<<><<,>,0,slash,slash,1,433.57,0.2,1.21
2025-10-23T07:50:52.013,212,5,12,<<<<<,<,1,lshift,lshift,1,367.41,0.2,1.275
2025-10-23T07:50:53.761,213,5,13,<<<<<,<,1,lshift,lshift,1,382.78,0.2,1.263
2025-10-23T07:50:55.393,214,5,14,<<<<<,<,1,lshift,lshift,1,333.12,0.2,1.266
2025-10-23T07:50:57.124,215,5,15,<<<<<,<,1,lshift,lshift,1,350.08,0.2,1.34
2025-10-23T07:50:58.741,216,5,16,<<<<<,<,1,lshift,lshift,1,333.86,0.2,1.258
2025-10-23T07:51:00.655,217,5,17,<<><<,>,0,slash,slash,1,600.91,0.2,1.372
2025-10-23T07:51:02.336,218,5,18,>>>>>,>,1,slash,slash,1,366.83,0.2,1.301
2025-10-23T07:51:04.019,219,5,19,<<><<,>,0,slash,slash,1,451.1,0.2,1.397
2025-10-23T07:51:05.766,220,5,20,>>>>>,>,1,slash,slash,1,382.75,0.2,1.318
2025-10-23T07:51:07.615,221,5,21,>><>>,<,0,lshift,lshift,1,432.36,0.2,1.399
2025-10-23T07:51:09.363,222,5,22,<<<<<,<,1,lshift,lshift,1,381.86,0.2,1.282
2025-10-23T07:51:11.079,223,5,23,>><>>,<,0,lshift,lshift,1,450.47,0.2,1.341
2025-10-23T07:51:12.943,224,5,24,>><>>,<,0,lshift,lshift,1,449.68,0.2,1.221
2025-10-23T07:51:14.643,225,5,25,<<<<<,<,1,lshift,lshift,1,367.79,0.2,1.382
2025-10-23T07:51:16.342,226,5,26,<<><<,>,0,slash,slash,1,416.73,0.2,1.232
2025-10-23T07:51:18.055,227,5,27,<<><<,>,0,slash,slash,1,482.54,0.2,1.248
2025-10-23T07:51:19.887,228,5,28,<<><<,>,0,slash,slash,1,415.86,0.2,1.231
2025-10-23T07:51:21.735,229,5,29,<<><<,>,0,slash,slash,1,433.3,0.2,1.332
2025-10-23T07:51:23.485,230,5,30,>><>>,<,0,lshift,lshift,1,432.29,0.2,1.381
2025-10-23T07:51:25.232,231,5,31,<<><<,>,0,slash,slash,1,382.96,0.2,1.354
2025-10-23T07:51:26.915,232,5,32,<<<<<,<,1,lshift,lshift,1,364.92,0.2,1.216
2025-10-23T07:51:28.663,233,5,33,>><>>,<,0,lshift,lshift,1,465.38,0.2,1.282
2025-10-23T07:51:30.479,234,5,34,<<><<,>,0,slash,slash,1,399.93,0.2,1.258
2025-10-23T07:51:32.177,235,5,35,>>>>>,>,1,slash,slash,1,383.78,0.2,1.398
2025-10-23T07:51:33.910,236,5,36,>><>>,<,0,lshift,lshift,1,416.06,0.2,1.262
2025-10-23T07:51:35.657,237,5,37,<<><<,>,0,slash,slash,1,416.34,0.2,1.378
2025-10-23T07:51:37.290,238,5,38,<<<<<,<,1,lshift,lshift,1,384.76,0.2,1.293
2025-10-23T07:51:39.020,239,5,39,>>>>>,>,1,slash,slash,1,349.86,0.2,1.232
2025-10-23T07:51:40.737,240,5,40,>>>>>,>,1,slash,slash,1,317.24,0.2,1.321
2025-10-23T07:51:42.551,241,5,41,<<<<<,<,1,lshift,lshift,1,415.15,0.2,1.384
2025-10-23T07:51:44.300,242,5,42,>>>>>,>,1,slash,slash,1,333.47,0.2,1.209
2025-10-23T07:51:45.900,243,5,43,>><>>,<,0,lshift,lshift,1,351.66,0.2,1.392
2025-10-23T07:51:47.464,244,5,44,>><>>,<,0,lshift,slash,0,300.52,0.2,1.323
2025-10-23T07:51:49.378,245,5,45,>><>>,<,0,lshift,lshift,1,514.86,0.2,1.392
2025-10-23T07:51:51.276,246,5,46,<<><<,>,0,slash,slash,1,480.4,0.2,1.296
2025-10-23T07:51:52.960,247,5,47,>>>>>,>,1,slash,slash,1,401.53,0.2,1.345
2025-10-23T07:51:54.656,248,5,48,>>>>>,>,1,slash,slash,1,349.4,0.2,1.211
2025-10-23T07:51:56.407,249,5,49,>>>>>,>,1,slash,slash,1,349.84,0.2,1.32
2025-10-23T07:51:58.220,250,5,50,>><>>,<,0,lshift,lshift,1,431.49,0.2,1.38
2025-10-23T07:52:09.879,251,6,1,<<<<<,<,1,lshift,lshift,1,433.06,0.2,1.293
2025-10-23T07:52:11.710,252,6,2,<<<<<,<,1,lshift,lshift,1,417.95,0.2,1.278
2025-10-23T07:52:13.557,253,6,3,<<><<,>,0,slash,slash,1,499.43,0.2,1.363
2025-10-23T07:52:15.356,254,6,4,>><>>,<,0,lshift,lshift,1,400.54,0.2,1.359
2025-10-23T07:52:17.121,255,6,5,>><>>,<,0,lshift,lshift,1,400.43,0.2,1.373
2025-10-23T07:52:18.873,256,6,6,>><>>,<,0,lshift,slash,0,369.69,0.2,1.286
2025-10-23T07:52:20.518,257,6,7,<<<<<,<,1,lshift,lshift,1,399.91,0.2,1.248
2025-10-23T07:52:22.499,258,6,8,>><>>,<,0,lshift,lshift,1,648.28,0.2,1.367
2025-10-23T07:52:24.214,259,6,9,>>>>>,>,1,slash,slash,1,382.85,0.2,1.305
2025-10-23T07:52:25.947,260,6,10,>>>>>,>,1,slash,slash,1,381.25,0.2,1.394
2025-10-23T07:52:27.746,261,6,11,<<<<<,<,1,lshift,lshift,1,383.79,0.2,1.394
2025-10-23T07:52:29.427,262,6,12,>>>>>,>,1,slash,slash,1,350.23,0.2,1.338
2025-10-23T07:52:31.209,263,6,13,<<><<,>,0,slash,slash,1,400.15,0.2,1.282
2025-10-23T07:52:32.840,264,6,14,>><>>,<,0,lshift,lshift,1,349.88,0.2,1.238
2025-10-23T07:52:34.589,265,6,15,<<<<<,<,1,lshift,lshift,1,366.42,0.2,1.373
2025-10-23T07:52:36.288,266,6,16,>>>>>,>,1,slash,slash,1,333.91,0.2,1.316
2025-10-23T07:52:38.120,267,6,17,<<><<,>,0,slash,slash,1,418.35,0.2,1.389
2025-10-23T07:52:39.702,268,6,18,<<<<<,<,1,lshift,lshift,1,350.76,0.2,1.245
2025-10-23T07:52:41.499,269,6,19,<<><<,>,0,slash,slash,1,399.96,0.2,1.223
2025-10-23T07:52:43.166,270,6,20,<<><<,>,0,slash,slash,1,367.68,0.2,1.398
2025-10-23T07:52:44.866,271,6,21,<<><<,>,0,slash,slash,1,468.64,0.2,1.325
2025-10-23T07:52:46.512,272,6,22,<<><<,>,0,slash,slash,1,399.57,0.2,1.323
2025-10-23T07:52:48.178,273,6,23,>>>>>,>,1,slash,slash,1,349.85,0.2,1.308
2025-10-23T07:52:49.859,274,6,24,>>>>>,>,1,slash,slash,1,317.17,0.2,1.351
2025-10-23T07:52:51.607,275,6,25,<<<<<,<,1,lshift,lshift,1,347.67,0.2,1.394
2025-10-23T07:52:53.222,276,6,26,<<<<<,<,1,lshift,lshift,1,348.55,0.2,1.318
2025-10-23T07:52:54.922,277,6,27,>><>>,<,0,lshift,lshift,1,383.89,0.2,1.253
2025-10-23T07:52:56.621,278,6,28,<<><<,>,0,slash,slash,1,449.94,0.2,1.241
2025-10-23T07:52:58.236,279,6,29,>>>>>,>,1,slash,slash,1,318.48,0.2,1.264
2025-10-23T07:53:00.034,280,6,30,>><>>,<,0,lshift,lshift,1,382.05,0.2,1.278
2025-10-23T07:53:01.800,281,6,31,<<><<,>,0,slash,lshift,0,351.03,0.2,1.281
2025-10-23T07:53:03.580,282,6,32,>><>>,<,0,lshift,lshift,1,398.34,0.2,1.27
2025-10-23T07:53:05.296,283,6,33,>>>>>,>,1,slash,slash,1,333.69,0.2,1.343
2025-10-23T07:53:06.993,284,6,34,<<><<,>,0,slash,slash,1,415.81,0.2,1.243
2025-10-23T07:53:08.660,285,6,35,<<><<,>,0,slash,slash,1,416.29,0.2,1.349
2025-10-23T07:53:10.357,286,6,36,<<><<,>,0,slash,slash,1,365.05,0.2,1.36
2025-10-23T07:53:12.139,287,6,37,>>>>>,>,1,slash,slash,1,365.36,0.2,1.355
2025-10-23T07:53:13.806,288,6,38,<<<<<,<,1,lshift,lshift,1,351.16,0.2,1.306
2025-10-23T07:53:15.371,289,6,39,>>>>>,>,1,slash,slash,1,334.09,0.2,1.234
2025-10-23T07:53:17.036,290,6,40,>><>>,<,0,lshift,lshift,1,400.93,0.2,1.392
2025-10-23T07:53:18.584,291,6,41,>>>>>,>,1,slash,slash,1,282.43,0.2,1.33
2025-10-23T07:53:20.282,292,6,42,<<><<,>,0,slash,slash,1,399.57,0.2,1.259
2025-10-23T07:53:21.981,293,6,43,>><>>,<,0,lshift,slash,0,316.66,0.2,1.228
2025-10-23T07:53:23.931,294,6,44,<<<<<,<,1,lshift,lshift,1,684.68,0.2,1.333
2025-10-23T07:53:25.694,295,6,45,>><>>,<,0,lshift,lshift,1,482.97,0.2,1.31
2025-10-23T07:53:27.293,296,6,46,>>>>>,>,1,slash,slash,1,331.3,0.2,1.273
2025-10-23T07:53:29.024,297,6,47,<<<<<,<,1,lshift,lshift,1,383.17,0.2,1.357
2025-10-23T07:53:30.756,298,6,48,<<<<<,<,1,lshift,lshift,1,316.47,0.2,1.304
2025-10-23T07:53:32.488,299,6,49,>><>>,<,0,lshift,lshift,1,382.47,0.2,1.396
2025-10-23T07:53:34.038,300,6,50,>>>>>,>,1,slash,slash,1,300.51,0.2,1.337
2025-10-23T07:53:39.582,301,7,1,>>>>>,>,1,slash,slash,1,333.24,0.2,1.211
2025-10-23T07:53:41.414,302,7,2,<<<<<,<,1,lshift,lshift,1,483.11,0.2,1.392
2025-10-23T07:53:42.912,303,7,3,<<><<,>,0,slash,slash,1,249.59,0.2,1.234
2025-10-23T07:53:44.560,304,7,4,>><>>,<,0,lshift,lshift,1,233.26,0.2,1.395
2025-10-23T07:53:46.327,305,7,5,>>>>>,>,1,slash,slash,1,384.16,0.2,1.36
2025-10-23T07:53:47.976,306,7,6,<<><<,>,0,slash,lshift,0,316.94,0.2,1.305
2025-10-23T07:53:49.724,307,7,7,<<<<<,<,1,lshift,slash,0,333.54,0.2,1.243
2025-10-23T07:53:51.405,308,7,8,<<<<<,<,1,lshift,lshift,1,347.59,0.2,1.302
2025-10-23T07:53:53.138,309,7,9,<<><<,>,0,slash,slash,1,381.75,0.2,1.275
2025-10-23T07:53:54.769,310,7,10,>><>>,<,0,lshift,slash,0,317.12,0.2,1.396
2025-10-23T07:53:56.384,311,7,11,<<><<,>,0,slash,lshift,0,333.04,0.2,1.393
2025-10-23T07:53:58.015,312,7,12,>>>>>,>,1,slash,slash,1,332.41,0.2,1.377
2025-10-23T07:53:59.732,313,7,13,<<><<,>,0,slash,lshift,0,314.95,0.2,1.359
2025-10-23T07:54:02.512,314,7,14,>><>>,<,0,lshift,,0,,0.2,1.321
2025-10-23T07:54:05.329,315,7,15,>>>>>,>,1,slash,,0,,0.2,1.297
2025-10-23T07:54:07.042,316,7,16,<<><<,>,0,slash,slash,1,450.96,0.2,1.394
2025-10-23T07:54:08.640,317,7,17,>>>>>,>,1,slash,slash,1,367.02,0.2,1.221
2025-10-23T07:54:10.290,318,7,18,<<<<<,<,1,lshift,lshift,1,333.79,0.2,1.235
2025-10-23T07:54:11.904,319,7,19,<<<<<,<,1,lshift,lshift,1,365.82,0.2,1.396
2025-10-23T07:54:13.636,320,7,20,>>>>>,>,1,slash,slash,1,348.35,0.2,1.391
2025-10-23T07:54:15.420,321,7,21,>><>>,<,0,lshift,lshift,1,402.16,0.2,1.297
2025-10-23T07:54:17.050,322,7,22,>><>>,<,0,lshift,slash,0,282.7,0.2,1.288
2025-10-23T07:54:18.681,323,7,23,>>>>>,>,1,slash,slash,1,333.47,0.2,1.378
2025-10-23T07:54:20.363,324,7,24,>><>>,<,0,lshift,slash,0,331.95,0.2,1.251
2025-10-23T07:54:21.946,325,7,25,>>>>>,>,1,slash,slash,1,302.16,0.2,1.334
2025-10-23T07:54:23.646,326,7,26,>>>>>,>,1,slash,slash,1,333.86,0.2,1.209
2025-10-23T07:54:25.409,327,7,27,>><>>,<,0,lshift,lshift,1,332.73,0.2,1.272
2025-10-23T07:54:26.959,328,7,28,>>>>>,>,1,slash,slash,1,316.97,0.2,1.297
2025-10-23T07:54:28.705,329,7,29,>><>>,<,0,lshift,slash,0,365.69,0.2,1.279
2025-10-23T07:54:30.437,330,7,30,<<<<<,<,1,lshift,lshift,1,349.71,0.2,1.336
2025-10-23T07:54:32.220,331,7,31,>><>>,<,0,lshift,lshift,1,483.58,0.2,1.282
2025-10-23T07:54:33.968,332,7,32,<<<<<,<,1,lshift,lshift,1,350.17,0.2,1.214
2025-10-23T07:54:35.616,333,7,33,<<<<<,<,1,lshift,lshift,1,332.87,0.2,1.375
2025-10-23T07:54:37.315,334,7,34,<<><<,>,0,slash,lshift,0,332.73,0.2,1.3
2025-10-23T07:54:39.031,335,7,35,<<><<,>,0,slash,lshift,0,382.6,0.2,1.371
2025-10-23T07:54:40.629,336,7,36,<<<<<,<,1,lshift,lshift,1,348.82,0.2,1.229
2025-10-23T07:54:42.479,337,7,37,>><>>,<,0,lshift,lshift,1,516.87,0.2,1.253
2025-10-23T07:54:44.242,338,7,38,>>>>>,>,1,slash,slash,1,346.8,0.2,1.381
2025-10-23T07:54:45.957,339,7,39,<<><<,>,0,slash,lshift,0,331.51,0.2,1.298
2025-10-23T07:54:47.639,340,7,40,<<><<,>,0,slash,lshift,0,349.35,0.2,1.215
2025-10-23T07:54:49.354,341,7,41,>>>>>,>,1,slash,slash,1,366.6,0.2,1.242
2025-10-23T07:54:50.988,342,7,42,>>>>>,>,1,slash,slash,1,367.84,0.2,1.323
2025-10-23T07:54:52.736,343,7,43,<<<<<,<,1,lshift,lshift,1,332.11,0.2,1.36
2025-10-23T07:54:54.335,344,7,44,>><>>,<,0,lshift,slash,0,367.73,0.2,1.294
2025-10-23T07:54:56.015,345,7,45,<<<<<,<,1,lshift,lshift,1,349.84,0.2,1.208
2025-10-23T07:54:58.047,346,7,46,<<><<,>,0,slash,slash,1,649.48,0.2,1.265
2025-10-23T07:54:59.597,347,7,47,<<><<,>,0,slash,lshift,0,267.19,0.2,1.388
2025-10-23T07:55:01.361,348,7,48,<<><<,>,0,slash,slash,1,350.07,0.2,1.23
2025-10-23T07:55:03.011,349,7,49,<<<<<,<,1,lshift,lshift,1,385.1,0.2,1.277
2025-10-23T07:55:04.690,350,7,50,>><>>,<,0,lshift,slash,0,281.29,0.2,1.356
2025-10-23T07:55:14.665,351,8,1,<<><<,>,0,slash,slash,1,464.49,0.2,1.269
2025-10-23T07:55:16.399,352,8,2,>>>>>,>,1,slash,slash,1,350.68,0.2,1.376
2025-10-23T07:55:18.180,353,8,3,<<<<<,<,1,lshift,lshift,1,367.58,0.2,1.39
2025-10-23T07:55:19.828,354,8,4,<<><<,>,0,slash,slash,1,399.46,0.2,1.302
2025-10-23T07:55:21.559,355,8,5,<<<<<,<,1,lshift,lshift,1,366.54,0.2,1.271
2025-10-23T07:55:23.258,356,8,6,<<><<,>,0,slash,slash,1,382.2,0.2,1.339
2025-10-23T07:55:25.091,357,8,7,<<><<,>,0,slash,slash,1,449.79,0.2,1.238
2025-10-23T07:55:26.755,358,8,8,>>>>>,>,1,slash,slash,1,365.01,0.2,1.379
2025-10-23T07:55:28.422,359,8,9,>><>>,<,0,lshift,slash,0,417.98,0.2,1.307
2025-10-23T07:55:30.285,360,8,10,>><>>,<,0,lshift,lshift,1,464.36,0.2,1.378
2025-10-23T07:55:31.983,361,8,11,>><>>,<,0,lshift,slash,0,382.71,0.2,1.211
2025-10-23T07:55:33.783,362,8,12,>><>>,<,0,lshift,lshift,1,500.59,0.2,1.244
2025-10-23T07:55:35.414,363,8,13,>>>>>,>,1,slash,slash,1,364.43,0.2,1.298
2025-10-23T07:55:37.098,364,8,14,<<<<<,<,1,lshift,lshift,1,434.26,0.2,1.344
2025-10-23T07:55:38.912,365,8,15,>><>>,<,0,lshift,lshift,1,467.16,0.2,1.306
2025-10-23T07:55:40.710,366,8,16,>><>>,<,0,lshift,lshift,1,399.81,0.2,1.377
2025-10-23T07:55:42.392,367,8,17,>>>>>,>,1,slash,slash,1,384.02,0.2,1.38
2025-10-23T07:55:44.239,368,8,18,<<><<,>,0,slash,slash,1,449.82,0.2,1.379
2025-10-23T07:55:46.041,369,8,19,<<<<<,<,1,lshift,lshift,1,384.83,0.2,1.21
2025-10-23T07:55:47.736,370,8,20,>>>>>,>,1,slash,slash,1,383.02,0.2,1.227
2025-10-23T07:55:49.469,371,8,21,>>>>>,>,1,slash,slash,1,383.96,0.2,1.203
2025-10-23T07:55:51.150,372,8,22,<<><<,>,0,slash,slash,1,449.73,0.2,1.337
2025-10-23T07:55:52.833,373,8,23,>>>>>,>,1,slash,slash,1,366.69,0.2,1.296
2025-10-23T07:55:54.648,374,8,24,<<><<,>,0,slash,slash,1,450.09,0.2,1.285
2025-10-23T07:55:56.331,375,8,25,>>>>>,>,1,slash,slash,1,367.51,0.2,1.375
2025-10-23T07:55:58.130,376,8,26,>><>>,<,0,lshift,lshift,1,485.57,0.2,1.34
2025-10-23T07:55:59.828,377,8,27,<<<<<,<,1,lshift,lshift,1,367.86,0.2,1.382
2025-10-23T07:56:01.592,378,8,28,>><>>,<,0,lshift,lshift,1,483.32,0.2,1.219
2025-10-23T07:56:03.389,379,8,29,>><>>,<,0,lshift,lshift,1,416.54,0.2,1.328
2025-10-23T07:56:05.155,380,8,30,<<<<<,<,1,lshift,lshift,1,398.39,0.2,1.353
2025-10-23T07:56:06.837,381,8,31,<<<<<,<,1,lshift,lshift,1,350.74,0.2,1.372
2025-10-23T07:56:08.585,382,8,32,<<><<,>,0,slash,slash,1,399.91,0.2,1.244
2025-10-23T07:56:10.217,383,8,33,>>>>>,>,1,slash,slash,1,381.91,0.2,1.233
2025-10-23T07:56:12.049,384,8,34,<<><<,>,0,slash,slash,1,467.05,0.2,1.23
2025-10-23T07:56:13.799,385,8,35,<<<<<,<,1,lshift,lshift,1,367.6,0.2,1.28
2025-10-23T07:56:15.546,386,8,36,>>>>>,>,1,slash,slash,1,350.2,0.2,1.309
2025-10-23T07:56:17.311,387,8,37,>><>>,<,0,lshift,lshift,1,482.55,0.2,1.24
2025-10-23T07:56:18.944,388,8,38,>>>>>,>,1,slash,slash,1,350.93,0.2,1.299
2025-10-23T07:56:20.708,389,8,39,<<<<<,<,1,lshift,lshift,1,348.25,0.2,1.337
2025-10-23T07:56:22.491,390,8,40,>><>>,<,0,lshift,lshift,1,416.83,0.2,1.232
2025-10-23T07:56:24.190,391,8,41,>>>>>,>,1,slash,slash,1,384.49,0.2,1.295
2025-10-23T07:56:25.920,392,8,42,<<><<,>,0,slash,slash,1,416.43,0.2,1.285
2025-10-23T07:56:27.635,393,8,43,>>>>>,>,1,slash,slash,1,366.05,0.2,1.275
2025-10-23T07:56:29.384,394,8,44,>><>>,<,0,lshift,lshift,1,481.65,0.2,1.269
2025-10-23T07:56:31.183,395,8,45,<<<<<,<,1,lshift,lshift,1,382.16,0.2,1.22
2025-10-23T07:56:32.865,396,8,46,<<><<,>,0,slash,slash,1,417.55,0.2,1.281
2025-10-23T07:56:34.463,397,8,47,<<<<<,<,1,lshift,lshift,1,366.69,0.2,1.293
2025-10-23T07:56:36.114,398,8,48,<<><<,>,0,slash,slash,1,350.4,0.2,1.266
2025-10-23T07:56:37.860,399,8,49,<<<<<,<,1,lshift,lshift,1,380.89,0.2,1.215
2025-10-23T07:56:39.574,400,8,50,<<><<,>,0,slash,slash,1,348.32,0.2,1.38
2025-10-23T07:56:46.538,401,9,1,>>>>>,>,1,slash,slash,1,367.64,0.2,1.249
2025-10-23T07:56:48.267,402,9,2,>><>>,<,0,lshift,slash,0,399.04,0.2,1.204
2025-10-23T07:56:50.015,403,9,3,<<><<,>,0,slash,slash,1,414.83,0.2,1.291
2025-10-23T07:56:51.748,404,9,4,>><>>,<,0,lshift,lshift,1,416.54,0.2,1.239
2025-10-23T07:56:53.497,405,9,5,<<><<,>,0,slash,lshift,0,366.1,0.2,1.236
2025-10-23T07:56:55.328,406,9,6,<<><<,>,0,slash,slash,1,416.94,0.2,1.219
2025-10-23T07:56:57.062,407,9,7,>>>>>,>,1,slash,slash,1,401.46,0.2,1.292
2025-10-23T07:56:58.793,408,9,8,<<<<<,<,1,lshift,lshift,1,347.78,0.2,1.33
2025-10-23T07:57:00.506,409,9,9,<<<<<,<,1,lshift,lshift,1,366.31,0.2,1.241
2025-10-23T07:57:02.155,410,9,10,>><>>,<,0,lshift,slash,0,381.15,0.2,1.272
2025-10-23T07:57:03.920,411,9,11,<<><<,>,0,slash,slash,1,399.81,0.2,1.252
2025-10-23T07:57:05.718,412,9,12,<<><<,>,0,slash,slash,1,482.84,0.2,1.228
2025-10-23T07:57:07.502,413,9,13,<<><<,>,0,slash,lshift,0,366.9,0.2,1.229
2025-10-23T07:57:09.266,414,9,14,>>>>>,>,1,slash,slash,1,397.49,0.2,1.285
2025-10-23T07:57:11.032,415,9,15,>>>>>,>,1,slash,slash,1,384.38,0.2,1.234
2025-10-23T07:57:12.829,416,9,16,<<><<,>,0,slash,slash,1,449.95,0.2,1.293
2025-10-23T07:57:14.562,417,9,17,<<<<<,<,1,lshift,lshift,1,366.85,0.2,1.27
2025-10-23T07:57:16.259,418,9,18,<<<<<,<,1,lshift,lshift,1,364.13,0.2,1.201
2025-10-23T07:57:17.960,419,9,19,>>>>>,>,1,slash,slash,1,332.62,0.2,1.241
2025-10-23T07:57:19.673,420,9,20,>><>>,<,0,lshift,slash,0,432.93,0.2,1.293
2025-10-23T07:57:21.288,421,9,21,>><>>,<,0,lshift,slash,0,363.47,0.2,1.26
2025-10-23T07:57:22.921,422,9,22,>><>>,<,0,lshift,lshift,1,399.05,0.2,1.375
2025-10-23T07:57:24.452,423,9,23,>>>>>,>,1,slash,slash,1,299.87,0.2,1.28
2025-10-23T07:57:26.218,424,9,24,>>>>>,>,1,slash,slash,1,367.31,0.2,1.247
2025-10-23T07:57:27.865,425,9,25,<<<<<,<,1,lshift,lshift,1,366.35,0.2,1.285
2025-10-23T07:57:29.598,426,9,26,<<<<<,<,1,lshift,lshift,1,381.47,0.2,1.348
2025-10-23T07:57:31.280,427,9,27,<<><<,>,0,slash,slash,1,399.21,0.2,1.349
2025-10-23T07:57:32.964,428,9,28,>>>>>,>,1,slash,slash,1,384.97,0.2,1.369
2025-10-23T07:57:34.744,429,9,29,>>>>>,>,1,slash,slash,1,366.88,0.2,1.39
2025-10-23T07:57:36.609,430,9,30,>><>>,<,0,lshift,lshift,1,465.3,0.2,1.304
2025-10-23T07:57:38.340,431,9,31,<<><<,>,0,slash,lshift,0,365.61,0.2,1.348
2025-10-23T07:57:40.057,432,9,32,>>>>>,>,1,slash,slash,1,368.06,0.2,1.381
2025-10-23T07:57:41.704,433,9,33,>>>>>,>,1,slash,slash,1,365.22,0.2,1.236
2025-10-23T07:57:43.486,434,9,34,>>>>>,>,1,slash,slash,1,365.76,0.2,1.399
2025-10-23T07:57:45.136,435,9,35,<<<<<,<,1,lshift,lshift,1,368.51,0.2,1.275
2025-10-23T07:57:46.800,436,9,36,>>>>>,>,1,slash,slash,1,381.15,0.2,1.349
2025-10-23T07:57:48.548,437,9,37,>><>>,<,0,lshift,lshift,1,431.27,0.2,1.323
2025-10-23T07:57:50.332,438,9,38,<<<<<,<,1,lshift,lshift,1,385.2,0.2,1.204
2025-10-23T07:57:52.113,439,9,39,<<<<<,<,1,lshift,lshift,1,368.62,0.2,1.295
2025-10-23T07:57:54.043,440,9,40,>><>>,<,0,lshift,lshift,1,517.03,0.2,1.295
2025-10-23T07:57:55.775,441,9,41,>><>>,<,0,lshift,lshift,1,464.25,0.2,1.296
2025-10-23T07:57:57.557,442,9,42,>><>>,<,0,lshift,lshift,1,399.87,0.2,1.384
2025-10-23T07:57:59.424,443,9,43,<<><<,>,0,slash,slash,1,484.77,0.2,1.308
2025-10-23T07:58:01.122,444,9,44,<<<<<,<,1,lshift,lshift,1,384.88,0.2,1.209
2025-10-23T07:58:02.838,445,9,45,<<><<,>,0,slash,slash,1,416.86,0.2,1.333
2025-10-23T07:58:04.768,446,9,46,<<><<,>,0,slash,slash,1,516.45,0.2,1.319
2025-10-23T07:58:06.566,447,9,47,>><>>,<,0,lshift,lshift,1,432.48,0.2,1.232
2025-10-23T07:58:08.349,448,9,48,<<<<<,<,1,lshift,lshift,1,451.08,0.2,1.206
2025-10-23T07:58:10.012,449,9,49,<<<<<,<,1,lshift,lshift,1,399.21,0.2,1.232
2025-10-23T07:58:11.762,450,9,50,<<><<,>,0,slash,slash,1,432.6,0.2,1.296
2025-10-23T07:58:16.092,451,10,1,<<<<<,<,1,lshift,lshift,1,401.38,0.2,1.326
2025-10-23T07:58:17.840,452,10,2,<<><<,>,0,slash,slash,1,399.55,0.2,1.216
2025-10-23T07:58:19.705,453,10,3,<<><<,>,0,slash,slash,1,482.94,0.2,1.305
2025-10-23T07:58:21.420,454,10,4,>>>>>,>,1,slash,slash,1,384.39,0.2,1.393
2025-10-23T07:58:23.051,455,10,5,>>>>>,>,1,slash,slash,1,347.22,0.2,1.381
2025-10-23T07:58:24.700,456,10,6,>><>>,<,0,lshift,slash,0,383.79,0.2,1.334
2025-10-23T07:58:26.365,457,10,7,>>>>>,>,1,slash,slash,1,366.28,0.2,1.381
2025-10-23T07:58:28.113,458,10,8,>><>>,<,0,lshift,lshift,1,416.41,0.2,1.326
2025-10-23T07:58:29.995,459,10,9,<<><<,>,0,slash,slash,1,515.37,0.2,1.335
2025-10-23T07:58:31.744,460,10,10,<<<<<,<,1,lshift,lshift,1,383.09,0.2,1.369
2025-10-23T07:58:33.359,461,10,11,>>>>>,>,1,slash,slash,1,383.16,0.2,1.304
2025-10-23T07:58:35.058,462,10,12,<<<<<,<,1,lshift,lshift,1,365.84,0.2,1.206
2025-10-23T07:58:36.789,463,10,13,<<><<,>,0,slash,slash,1,366.24,0.2,1.287
2025-10-23T07:58:38.471,464,10,14,>>>>>,>,1,slash,slash,1,381.35,0.2,1.236
2025-10-23T07:58:40.253,465,10,15,>><>>,<,0,lshift,lshift,1,382.7,0.2,1.34
2025-10-23T07:58:41.968,466,10,16,>><>>,<,0,lshift,lshift,1,365.75,0.2,1.21
2025-10-23T07:58:43.651,467,10,17,<<<<<,<,1,lshift,lshift,1,382.95,0.2,1.391
2025-10-23T07:58:45.349,468,10,18,>><>>,<,0,lshift,lshift,1,450.42,0.2,1.327
2025-10-23T07:58:47.047,469,10,19,<<<<<,<,1,lshift,lshift,1,400.16,0.2,1.336
2025-10-23T07:58:48.796,470,10,20,<<><<,>,0,slash,slash,1,366.5,0.2,1.358
2025-10-23T07:58:50.444,471,10,21,>><>>,<,0,lshift,lshift,1,431.82,0.2,1.302
2025-10-23T07:58:52.193,472,10,22,>><>>,<,0,lshift,lshift,1,399.84,0.2,1.336
2025-10-23T07:58:53.993,473,10,23,<<><<,>,0,slash,slash,1,449.83,0.2,1.217
2025-10-23T07:58:55.757,474,10,24,<<><<,>,0,slash,slash,1,450.72,0.2,1.284
2025-10-23T07:58:57.671,475,10,25,<<><<,>,0,slash,slash,1,499.47,0.2,1.332
2025-10-23T07:58:59.403,476,10,26,<<<<<,<,1,lshift,lshift,1,381.67,0.2,1.308
2025-10-23T07:59:01.154,477,10,27,<<<<<,<,1,lshift,lshift,1,402.3,0.2,1.256
2025-10-23T07:59:02.816,478,10,28,<<<<<,<,1,lshift,lshift,1,415.99,0.2,1.337
2025-10-23T07:59:04.582,479,10,29,>>>>>,>,1,slash,slash,1,364.86,0.2,1.315
2025-10-23T07:59:06.263,480,10,30,>>>>>,>,1,slash,slash,1,383.41,0.2,1.327
2025-10-23T07:59:07.978,481,10,31,>>>>>,>,1,slash,slash,1,350.05,0.2,1.299
2025-10-23T07:59:09.660,482,10,32,>><>>,<,0,lshift,lshift,1,399.16,0.2,1.384
2025-10-23T07:59:11.392,483,10,33,>>>>>,>,1,slash,slash,1,332.43,0.2,1.211
2025-10-23T07:59:13.143,484,10,34,<<><<,>,0,slash,slash,1,416.87,0.2,1.264
2025-10-23T07:59:14.906,485,10,35,<<<<<,<,1,lshift,lshift,1,364.3,0.2,1.267
2025-10-23T07:59:16.639,486,10,36,>><>>,<,0,lshift,lshift,1,433.8,0.2,1.339
2025-10-23T07:59:18.354,487,10,37,>><>>,<,0,lshift,lshift,1,449.08,0.2,1.28
2025-10-23T07:59:19.952,488,10,38,>>>>>,>,1,slash,slash,1,367.32,0.2,1.319
2025-10-23T07:59:21.684,489,10,39,<<<<<,<,1,lshift,lshift,1,350.19,0.2,1.318
2025-10-23T07:59:23.399,490,10,40,>>>>>,>,1,slash,slash,1,351.1,0.2,1.309
2025-10-23T07:59:25.180,491,10,41,>>>>>,>,1,slash,slash,1,382.7,0.2,1.224
2025-10-23T07:59:27.062,492,10,42,<<><<,>,0,slash,slash,1,466.47,0.2,1.209
2025-10-23T07:59:28.795,493,10,43,>><>>,<,0,lshift,slash,0,399.6,0.2,1.295
2025-10-23T07:59:30.627,494,10,44,>><>>,<,0,lshift,lshift,1,416.12,0.2,1.29
2025-10-23T07:59:32.424,495,10,45,<<><<,>,0,slash,slash,1,398.84,0.2,1.312
2025-10-23T07:59:34.272,496,10,46,<<><<,>,0,slash,slash,1,532.98,0.2,1.215
2025-10-23T07:59:35.921,497,10,47,<<<<<,<,1,lshift,lshift,1,414.93,0.2,1.246
2025-10-23T07:59:37.569,498,10,48,<<<<<,<,1,lshift,lshift,1,382.31,0.2,1.213
2025-10-23T07:59:39.354,499,10,49,<<><<,>,0,slash,slash,1,384.41,0.2,1.276
2025-10-23T07:59:40.984,500,10,50,>>>>>,>,1,slash,slash,1,384.17,0.2,1.3
2025-10-23T07:59:50.858,501,11,1,>><>>,<,0,lshift,lshift,1,849.28,0.2,1.29
2025-10-23T07:59:52.540,502,11,2,>>>>>,>,1,slash,slash,1,382.3,0.2,1.337
2025-10-23T07:59:54.272,503,11,3,<<><<,>,0,slash,slash,1,483.27,0.2,1.255
2025-10-23T07:59:56.055,504,11,4,>><>>,<,0,lshift,lshift,1,468.06,0.2,1.217
2025-10-23T07:59:57.685,505,11,5,>><>>,<,0,lshift,lshift,1,399.27,0.2,1.251
2025-10-23T07:59:59.385,506,11,6,<<<<<,<,1,lshift,slash,0,300.03,0.2,1.347
2025-10-23T08:00:01.102,507,11,7,<<<<<,<,1,lshift,lshift,1,369.65,0.2,1.274
2025-10-23T08:00:02.980,508,11,8,>><>>,<,0,lshift,lshift,1,465.43,0.2,1.297
2025-10-23T08:00:04.731,509,11,9,<<><<,>,0,slash,lshift,0,384.31,0.2,1.337
2025-10-23T08:00:06.495,510,11,10,<<<<<,<,1,lshift,lshift,1,364.96,0.2,1.387
2025-10-23T08:00:08.262,511,11,11,<<><<,>,0,slash,slash,1,453.13,0.2,1.378
2025-10-23T08:00:10.009,512,11,12,>><>>,<,0,lshift,lshift,1,433.63,0.2,1.224
2025-10-23T08:00:11.606,513,11,13,>>>>>,>,1,slash,slash,1,364.54,0.2,1.246
2025-10-23T08:00:13.288,514,11,14,>><>>,<,0,lshift,lshift,1,382.77,0.2,1.281
2025-10-23T08:00:14.937,515,11,15,<<<<<,<,1,lshift,lshift,1,366.96,0.2,1.374
2025-10-23T08:00:16.719,516,11,16,<<><<,>,0,slash,lshift,0,382.16,0.2,1.367
2025-10-23T08:00:18.517,517,11,17,>>>>>,>,1,slash,slash,1,381.11,0.2,1.372
2025-10-23T08:00:20.216,518,11,18,<<><<,>,0,slash,slash,1,466.91,0.2,1.316
2025-10-23T08:00:21.899,519,11,19,>>>>>,>,1,slash,slash,1,368.11,0.2,1.344
2025-10-23T08:00:23.730,520,11,20,>><>>,<,0,lshift,lshift,1,434.02,0.2,1.348
2025-10-23T08:00:25.427,521,11,21,<<<<<,<,1,lshift,lshift,1,330.55,0.2,1.378
2025-10-23T08:00:27.076,522,11,22,<<><<,>,0,slash,slash,1,364.4,0.2,1.316
2025-10-23T08:00:28.858,523,11,23,>><>>,<,0,lshift,slash,0,366.39,0.2,1.292
2025-10-23T08:00:30.625,524,11,24,<<<<<,<,1,lshift,lshift,1,417.6,0.2,1.389
2025-10-23T08:00:32.255,525,11,25,>>>>>,>,1,slash,slash,1,364.84,0.2,1.337
2025-10-23T08:00:34.070,526,11,26,<<><<,>,0,slash,slash,1,381.49,0.2,1.201
2025-10-23T08:00:35.786,527,11,27,<<><<,>,0,slash,slash,1,416.78,0.2,1.329
2025-10-23T08:00:37.536,528,11,28,>>>>>,>,1,slash,slash,1,367.89,0.2,1.243
2025-10-23T08:00:39.282,529,11,29,>>>>>,>,1,slash,slash,1,381.52,0.2,1.365
2025-10-23T08:00:41.049,530,11,30,<<<<<,<,1,lshift,lshift,1,350.96,0.2,1.379
2025-10-23T08:00:42.679,531,11,31,<<<<<,<,1,lshift,lshift,1,365.31,0.2,1.241
2025-10-23T08:00:44.412,532,11,32,>>>>>,>,1,slash,slash,1,350.67,0.2,1.38
2025-10-23T08:00:46.043,533,11,33,>>>>>,>,1,slash,slash,1,366.32,0.2,1.32
2025-10-23T08:00:47.676,534,11,34,<<<<<,<,1,lshift,lshift,1,332.12,0.2,1.288
2025-10-23T08:00:49.442,535,11,35,>><>>,<,0,lshift,lshift,1,450.69,0.2,1.373
2025-10-23T08:00:51.089,536,11,36,<<><<,>,0,slash,lshift,0,350.15,0.2,1.359
2025-10-23T08:00:52.839,537,11,37,<<><<,>,0,slash,slash,1,367.83,0.2,1.279
2025-10-23T08:00:54.653,538,11,38,>><>>,<,0,lshift,slash,0,399.25,0.2,1.374
2025-10-23T08:00:56.468,539,11,39,<<<<<,<,1,lshift,lshift,1,532.83,0.2,1.379
2025-10-23T08:00:58.084,540,11,40,>>>>>,>,1,slash,slash,1,351.07,0.2,1.3
2025-10-23T08:00:59.847,541,11,41,>>>>>,>,1,slash,slash,1,381.42,0.2,1.293
2025-10-23T08:01:01.447,542,11,42,<<<<<,<,1,lshift,lshift,1,297.93,0.2,1.207
2025-10-23T08:01:03.196,543,11,43,<<><<,>,0,slash,lshift,0,367.44,0.2,1.351
2025-10-23T08:01:04.994,544,11,44,<<><<,>,0,slash,slash,1,451.37,0.2,1.227
2025-10-23T08:01:06.677,545,11,45,<<><<,>,0,slash,slash,1,434.53,0.2,1.255
2025-10-23T08:01:08.423,546,11,46,>>>>>,>,1,slash,slash,1,347.15,0.2,1.316
2025-10-23T08:01:10.140,547,11,47,<<<<<,<,1,lshift,lshift,1,365.9,0.2,1.223
2025-10-23T08:01:11.789,548,11,48,>>>>>,>,1,slash,slash,1,267.56,0.2,1.234
2025-10-23T08:01:13.504,549,11,49,>><>>,<,0,lshift,lshift,1,385.03,0.2,1.231
2025-10-23T08:01:15.268,550,11,50,>><>>,<,0,lshift,lshift,1,350.65,0.2,1.272
2025-10-23T08:01:21.247,551,12,1,>><>>,<,0,lshift,lshift,1,451.21,0.2,1.368
2025-10-23T08:01:22.960,552,12,2,<<><<,>,0,slash,slash,1,382.81,0.2,1.278
2025-10-23T08:01:24.693,553,12,3,>>>>>,>,1,slash,slash,1,364.44,0.2,1.214
2025-10-23T08:01:26.374,554,12,4,>>>>>,>,1,slash,slash,1,382.87,0.2,1.261
2025-10-23T08:01:28.090,555,12,5,<<<<<,<,1,lshift,lshift,1,349.03,0.2,1.2
2025-10-23T08:01:29.657,556,12,6,<<<<<,<,1,lshift,lshift,1,332.91,0.2,1.282
2025-10-23T08:01:31.456,557,12,7,>>>>>,>,1,slash,slash,1,402.03,0.2,1.371
2025-10-23T08:01:33.219,558,12,8,>><>>,<,0,lshift,lshift,1,416.23,0.2,1.36
2025-10-23T08:01:34.983,559,12,9,>><>>,<,0,lshift,lshift,1,366.42,0.2,1.398
2025-10-23T08:01:36.599,560,12,10,>>>>>,>,1,slash,slash,1,366.17,0.2,1.223
2025-10-23T08:01:38.331,561,12,11,<<<<<,<,1,lshift,lshift,1,300.24,0.2,1.202
2025-10-23T08:01:40.012,562,12,12,>><>>,<,0,lshift,slash,0,299.35,0.2,1.305
2025-10-23T08:01:41.694,563,12,13,<<><<,>,0,slash,lshift,0,382.82,0.2,1.219
2025-10-23T08:01:43.376,564,12,14,<<><<,>,0,slash,slash,1,431.8,0.2,1.246
2025-10-23T08:01:45.242,565,12,15,<<><<,>,0,slash,slash,1,467.18,0.2,1.38
2025-10-23T08:01:46.940,566,12,16,>>>>>,>,1,slash,slash,1,366.96,0.2,1.218
2025-10-23T08:01:48.655,567,12,17,>><>>,<,0,lshift,lshift,1,432.98,0.2,1.346
2025-10-23T08:01:50.388,568,12,18,>><>>,<,0,lshift,lshift,1,367.79,0.2,1.396
2025-10-23T08:01:51.985,569,12,19,>><>>,<,0,lshift,lshift,1,331.12,0.2,1.244
2025-10-23T08:01:53.734,570,12,20,<<<<<,<,1,lshift,lshift,1,333.18,0.2,1.304
2025-10-23T08:01:55.599,571,12,21,>><>>,<,0,lshift,lshift,1,465.59,0.2,1.357
2025-10-23T08:01:57.465,572,12,22,<<><<,>,0,slash,slash,1,467.67,0.2,1.399
2025-10-23T08:01:59.147,573,12,23,>>>>>,>,1,slash,slash,1,381.82,0.2,1.38
2025-10-23T08:02:00.778,574,12,24,>><>>,<,0,lshift,lshift,1,349.4,0.2,1.335
2025-10-23T08:02:02.512,575,12,25,>>>>>,>,1,slash,slash,1,351.16,0.2,1.345
2025-10-23T08:02:04.109,576,12,26,<<<<<,<,1,lshift,lshift,1,333.65,0.2,1.335
2025-10-23T08:02:05.823,577,12,27,<<<<<,<,1,lshift,lshift,1,299.57,0.2,1.212
2025-10-23T08:02:07.607,578,12,28,>>>>>,>,1,slash,slash,1,367.89,0.2,1.308
2025-10-23T08:02:09.389,579,12,29,>><>>,<,0,lshift,lshift,1,416.58,0.2,1.314
2025-10-23T08:02:11.052,580,12,30,>><>>,<,0,lshift,slash,0,299.84,0.2,1.289
2025-10-23T08:02:12.652,581,12,31,>>>>>,>,1,slash,slash,1,300.92,0.2,1.284
2025-10-23T08:02:14.384,582,12,32,>>>>>,>,1,slash,slash,1,334.42,0.2,1.326
2025-10-23T08:02:16.031,583,12,33,<<><<,>,0,slash,lshift,0,233.9,0.2,1.32
2025-10-23T08:02:17.682,584,12,34,<<><<,>,0,slash,lshift,0,252.04,0.2,1.329
2025-10-23T08:02:19.445,585,12,35,<<<<<,<,1,lshift,lshift,1,350.8,0.2,1.265
2025-10-23T08:02:21.211,586,12,36,<<<<<,<,1,lshift,lshift,1,331.64,0.2,1.293
2025-10-23T08:02:22.877,587,12,37,<<><<,>,0,slash,slash,1,435.15,0.2,1.226
2025-10-23T08:02:24.558,588,12,38,<<><<,>,0,slash,slash,1,381.35,0.2,1.226
2025-10-23T08:02:26.324,589,12,39,>><>>,<,0,lshift,lshift,1,384.24,0.2,1.389
2025-10-23T08:02:28.071,590,12,40,<<<<<,<,1,lshift,lshift,1,364.96,0.2,1.318
2025-10-23T08:02:29.688,591,12,41,<<<<<,<,1,lshift,lshift,1,334.49,0.2,1.306
2025-10-23T08:02:31.319,592,12,42,>>>>>,>,1,slash,slash,1,350.56,0.2,1.317
2025-10-23T08:02:33.000,593,12,43,<<<<<,<,1,lshift,lshift,1,333.94,0.2,1.331
2025-10-23T08:02:34.632,594,12,44,<<><<,>,0,slash,lshift,0,366.27,0.2,1.207
2025-10-23T08:02:36.363,595,12,45,>>>>>,>,1,slash,slash,1,348.18,0.2,1.254
2025-10-23T08:02:38.079,596,12,46,<<><<,>,0,slash,lshift,0,348.45,0.2,1.31
2025-10-23T08:02:39.811,597,12,47,<<<<<,<,1,lshift,lshift,1,332.93,0.2,1.362
2025-10-23T08:02:41.509,598,12,48,>>>>>,>,1,slash,slash,1,349.89,0.2,1.306
2025-10-23T08:02:43.390,599,12,49,<<><<,>,0,slash,slash,1,482.94,0.2,1.364
2025-10-23T08:02:45.174,600,12,50,<<><<,>,0,slash,slash,1,401.31,0.2,1.23
2025-10-23T08:02:50.818,601,13,1,>>>>>,>,1,slash,slash,1,384.19,0.2,1.34
2025-10-23T08:02:52.616,602,13,2,>><>>,<,0,lshift,lshift,1,397.32,0.2,1.373
2025-10-23T08:02:54.181,603,13,3,>>>>>,>,1,slash,slash,1,333.11,0.2,1.387
2025-10-23T08:02:55.965,604,13,4,<<><<,>,0,slash,slash,1,432.29,0.2,1.294
2025-10-23T08:02:57.628,605,13,5,>><>>,<,0,lshift,slash,0,350.11,0.2,1.389
2025-10-23T08:02:59.477,606,13,6,<<<<<,<,1,lshift,lshift,1,616.09,0.2,1.33
2025-10-23T08:03:01.142,607,13,7,<<<<<,<,1,lshift,lshift,1,364.61,0.2,1.326
2025-10-23T08:03:02.857,608,13,8,>><>>,<,0,lshift,slash,0,350.04,0.2,1.276
2025-10-23T08:03:04.673,609,13,9,<<><<,>,0,slash,slash,1,417.62,0.2,1.245
2025-10-23T08:03:06.423,610,13,10,>><>>,<,0,lshift,lshift,1,351.98,0.2,1.248
2025-10-23T08:03:08.303,611,13,11,<<><<,>,0,slash,slash,1,465.11,0.2,1.236
2025-10-23T08:03:09.984,612,13,12,>><>>,<,0,lshift,lshift,1,432.93,0.2,1.208
2025-10-23T08:03:12.900,613,13,13,>><>>,<,0,lshift,,0,,0.2,1.38
2025-10-23T08:03:14.599,614,13,14,<<<<<,<,1,lshift,lshift,1,434.56,0.2,1.252
2025-10-23T08:03:16.347,615,13,15,<<<<<,<,1,lshift,lshift,1,367.86,0.2,1.262
2025-10-23T08:03:18.011,616,13,16,<<><<,>,0,slash,slash,1,398.48,0.2,1.283
2025-10-23T08:03:19.660,617,13,17,>>>>>,>,1,slash,slash,1,367.6,0.2,1.363
2025-10-23T08:03:21.391,618,13,18,>><>>,<,0,lshift,lshift,1,383.14,0.2,1.4
2025-10-23T08:03:23.006,619,13,19,<<><<,>,0,slash,slash,1,365.41,0.2,1.383
2025-10-23T08:03:24.790,620,13,20,<<<<<,<,1,lshift,lshift,1,368.4,0.2,1.368
2025-10-23T08:03:26.538,621,13,21,>>>>>,>,1,slash,slash,1,367.79,0.2,1.304
2025-10-23T08:03:28.385,622,13,22,<<><<,>,0,slash,slash,1,481.36,0.2,1.288
2025-10-23T08:03:30.066,623,13,23,>>>>>,>,1,slash,slash,1,366.53,0.2,1.326
2025-10-23T08:03:31.832,624,13,24,>><>>,<,0,lshift,lshift,1,383.54,0.2,1.355
2025-10-23T08:03:33.565,625,13,25,>>>>>,>,1,slash,slash,1,301.59,0.2,1.392
2025-10-23T08:03:35.164,626,13,26,<<<<<,<,1,lshift,lshift,1,368.06,0.2,1.369
2025-10-23T08:03:36.827,627,13,27,>>>>>,>,1,slash,slash,1,349.47,0.2,1.366
2025-10-23T08:03:38.593,628,13,28,<<><<,>,0,slash,slash,1,399.81,0.2,1.345
2025-10-23T08:03:40.391,629,13,29,<<><<,>,0,slash,slash,1,432.35,0.2,1.296
2025-10-23T08:03:42.039,630,13,30,>><>>,<,0,lshift,lshift,1,383.23,0.2,1.366
2025-10-23T08:03:43.755,631,13,31,>><>>,<,0,lshift,lshift,1,433.72,0.2,1.326
2025-10-23T08:03:45.555,632,13,32,<<><<,>,0,slash,slash,1,416.51,0.2,1.323
2025-10-23T08:03:47.251,633,13,33,<<<<<,<,1,lshift,lshift,1,331.86,0.2,1.239
2025-10-23T08:03:49.034,634,13,34,<<<<<,<,1,lshift,lshift,1,383.44,0.2,1.35
2025-10-23T08:03:50.682,635,13,35,<<<<<,<,1,lshift,lshift,1,333.43,0.2,1.304
2025-10-23T08:03:52.348,636,13,36,>>>>>,>,1,slash,slash,1,350.62,0.2,1.284
2025-10-23T08:03:54.096,637,13,37,>>>>>,>,1,slash,slash,1,348.59,0.2,1.382
2025-10-23T08:03:55.678,638,13,38,>>>>>,>,1,slash,slash,1,333.52,0.2,1.366
2025-10-23T08:03:57.359,639,13,39,>>>>>,>,1,slash,slash,1,365.8,0.2,1.324
2025-10-23T08:03:59.008,640,13,40,<<<<<,<,1,lshift,lshift,1,365.06,0.2,1.24
2025-10-23T08:04:00.691,641,13,41,<<><<,>,0,slash,slash,1,399.81,0.2,1.204
2025-10-23T08:04:02.338,642,13,42,<<><<,>,0,slash,slash,1,416.63,0.2,1.304
2025-10-23T08:04:04.087,643,13,43,>><>>,<,0,lshift,lshift,1,482.99,0.2,1.367
2025-10-23T08:04:05.938,644,13,44,<<><<,>,0,slash,slash,1,435.11,0.2,1.22
2025-10-23T08:04:07.701,645,13,45,>><>>,<,0,lshift,lshift,1,367.2,0.2,1.323
2025-10-23T08:04:09.315,646,13,46,>>>>>,>,1,slash,slash,1,332.8,0.2,1.233
2025-10-23T08:04:11.048,647,13,47,<<><<,>,0,slash,slash,1,431.94,0.2,1.294
2025-10-23T08:04:12.780,648,13,48,>>>>>,>,1,slash,slash,1,384.01,0.2,1.389
2025-10-23T08:04:14.512,649,13,49,<<<<<,<,1,lshift,lshift,1,349.92,0.2,1.358
2025-10-23T08:04:16.260,650,13,50,<<<<<,<,1,lshift,lshift,1,365.79,0.2,1.321
2025-10-23T08:04:22.520,651,14,1,<<<<<,<,1,lshift,lshift,1,382.61,0.2,1.327
2025-10-23T08:04:24.170,652,14,2,>><>>,<,0,lshift,slash,0,316.89,0.2,1.226
2025-10-23T08:04:25.935,653,14,3,<<><<,>,0,slash,lshift,0,365.61,0.2,1.251
2025-10-23T08:04:27.517,654,14,4,<<<<<,<,1,lshift,lshift,1,349.82,0.2,1.309
2025-10-23T08:04:29.351,655,14,5,>><>>,<,0,lshift,lshift,1,416.91,0.2,1.275
2025-10-23T08:04:31.014,656,14,6,>><>>,<,0,lshift,lshift,1,367.69,0.2,1.345
2025-10-23T08:04:32.665,657,14,7,<<><<,>,0,slash,slash,1,401.35,0.2,1.249
2025-10-23T08:04:34.411,658,14,8,>>>>>,>,1,slash,slash,1,367.59,0.2,1.354
2025-10-23T08:04:36.242,659,14,9,>><>>,<,0,lshift,lshift,1,399.38,0.2,1.379
2025-10-23T08:04:37.891,660,14,10,>>>>>,>,1,slash,slash,1,348.11,0.2,1.213
2025-10-23T08:04:39.639,661,14,11,<<<<<,<,1,lshift,lshift,1,365.23,0.2,1.314
2025-10-23T08:04:41.389,662,14,12,<<<<<,<,1,lshift,lshift,1,350.5,0.2,1.335
2025-10-23T08:04:43.138,663,14,13,<<><<,>,0,slash,slash,1,467.52,0.2,1.393
2025-10-23T08:04:44.968,664,14,14,<<><<,>,0,slash,slash,1,433.17,0.2,1.203
2025-10-23T08:04:46.685,665,14,15,>><>>,<,0,lshift,lshift,1,416.26,0.2,1.353
2025-10-23T08:04:48.465,666,14,16,>><>>,<,0,lshift,slash,0,399.59,0.2,1.355
2025-10-23T08:04:50.097,667,14,17,>>>>>,>,1,slash,slash,1,366.94,0.2,1.281
2025-10-23T08:04:51.847,668,14,18,<<<<<,<,1,lshift,lshift,1,351.21,0.2,1.27
2025-10-23T08:04:53.594,669,14,19,<<><<,>,0,slash,slash,1,416.26,0.2,1.368
2025-10-23T08:04:55.195,670,14,20,>>>>>,>,1,slash,slash,1,351.66,0.2,1.258
2025-10-23T08:04:56.824,671,14,21,<<<<<,<,1,lshift,lshift,1,333.23,0.2,1.387
2025-10-23T08:04:58.507,672,14,22,>>>>>,>,1,slash,slash,1,349.72,0.2,1.244
2025-10-23T08:05:00.271,673,14,23,<<><<,>,0,slash,slash,1,348.46,0.2,1.255
2025-10-23T08:05:01.987,674,14,24,>>>>>,>,1,slash,slash,1,333.11,0.2,1.39
2025-10-23T08:05:03.586,675,14,25,>>>>>,>,1,slash,slash,1,316.32,0.2,1.252
2025-10-23T08:05:05.184,676,14,26,>>>>>,>,1,slash,slash,1,366.23,0.2,1.365
2025-10-23T08:05:06.932,677,14,27,>>>>>,>,1,slash,slash,1,398.74,0.2,1.322
2025-10-23T08:05:08.665,678,14,28,<<><<,>,0,slash,lshift,0,382.41,0.2,1.261
2025-10-23T08:05:10.397,679,14,29,>>>>>,>,1,slash,slash,1,367.84,0.2,1.261
2025-10-23T08:05:12.262,680,14,30,<<><<,>,0,slash,slash,1,467.5,0.2,1.263
2025-10-23T08:05:13.911,681,14,31,<<><<,>,0,slash,slash,1,351.02,0.2,1.337
2025-10-23T08:05:15.608,682,14,32,<<<<<,<,1,lshift,lshift,1,366.41,0.2,1.232
2025-10-23T08:05:17.439,683,14,33,<<><<,>,0,slash,slash,1,416.0,0.2,1.294
2025-10-23T08:05:19.172,684,14,34,<<<<<,<,1,lshift,lshift,1,383.43,0.2,1.302
2025-10-23T08:05:21.037,685,14,35,>><>>,<,0,lshift,lshift,1,499.58,0.2,1.347
2025-10-23T08:05:22.685,686,14,36,>>>>>,>,1,slash,slash,1,383.31,0.2,1.231
2025-10-23T08:05:24.401,687,14,37,<<<<<,<,1,lshift,lshift,1,366.44,0.2,1.269
2025-10-23T08:05:26.116,688,14,38,>><>>,<,0,lshift,lshift,1,431.53,0.2,1.349
2025-10-23T08:05:27.714,689,14,39,<<><<,>,0,slash,slash,1,364.92,0.2,1.302
2025-10-23T08:05:29.396,690,14,40,>><>>,<,0,lshift,lshift,1,399.57,0.2,1.314
2025-10-23T08:05:31.178,691,14,41,>><>>,<,0,lshift,lshift,1,416.25,0.2,1.323
2025-10-23T08:05:32.926,692,14,42,<<<<<,<,1,lshift,lshift,1,332.04,0.2,1.302
2025-10-23T08:05:34.641,693,14,43,>><>>,<,0,lshift,lshift,1,381.18,0.2,1.389
2025-10-23T08:05:36.359,694,14,44,>>>>>,>,1,slash,slash,1,417.25,0.2,1.231
2025-10-23T08:05:38.022,695,14,45,>><>>,<,0,lshift,lshift,1,416.59,0.2,1.346
2025-10-23T08:05:39.621,696,14,46,<<<<<,<,1,lshift,lshift,1,349.18,0.2,1.315
2025-10-23T08:05:41.386,697,14,47,<<><<,>,0,slash,slash,1,467.52,0.2,1.347
2025-10-23T08:05:43.118,698,14,48,<<><<,>,0,slash,slash,1,466.9,0.2,1.388
2025-10-23T08:05:44.866,699,14,49,>>>>>,>,1,slash,slash,1,382.2,0.2,1.317
2025-10-23T08:05:46.616,700,14,50,<<<<<,<,1,lshift,lshift,1,350.01,0.2,1.265
