timestamp_iso,trial_index,brand,brand_path,target,prime_time_s,isi_s,target_time_s,cooldown_s,resp_window_s,resp_key,rt_ms_from_target,rt_ms_from_window_open
2025-11-13T07:44:08.886,0,linkedin,C:\Users\Nadira\Documents\Experiments\visual-evoked-potentials\psychopy_experiments\media/logos/linkedin.png,სამსახური,0.16,0.54,0.16,0.0,1.5,right,972.97,972.97
2025-11-13T07:44:11.217,1,linkedin,C:\Users\Nadira\Documents\Experiments\visual-evoked-potentials\psychopy_experiments\media/logos/linkedin.png,მოგონებები,0.16,0.54,0.16,0.0,1.5,left,1041.13,1041.13
2025-11-13T07:44:13.482,2,instagram,C:\Users\Nadira\Documents\Experiments\visual-evoked-potentials\psychopy_experiments\media/logos/instagram.png,ინფლუენსერი,0.16,0.54,0.16,0.0,1.5,right,910.08,910.08
2025-11-13T07:44:15.448,3,instagram,C:\Users\Nadira\Documents\Experiments\visual-evoked-potentials\psychopy_experiments\media/logos/instagram.png,შესაძლებლობა,0.16,0.54,0.16,0.0,1.5,right,712.23,712.23
2025-11-13T07:44:17.562,4,linkedin,C:\Users\Nadira\Documents\Experiments\visual-evoked-potentials\psychopy_experiments\media/logos/linkedin.png,ბალიში,0.16,0.54,0.16,0.0,1.5,left,832.26,832.26
2025-11-13T07:44:19.910,5,instagram,C:\Users\Nadira\Documents\Experiments\visual-evoked-potentials\psychopy_experiments\media/logos/instagram.png,მოგზაურობა,0.16,0.54,0.16,0.0,1.5,right,1076.13,1076.13
2025-11-13T07:44:21.841,6,linkedin,C:\Users\Nadira\Documents\Experiments\visual-evoked-potentials\psychopy_experiments\media/logos/linkedin.png,ბალიში,0.16,0.54,0.16,0.0,1.5,left,645.17,645.17
2025-11-13T07:44:23.907,7,linkedin,C:\Users\Nadira\Documents\Experiments\visual-evoked-potentials\psychopy_experiments\media/logos/linkedin.png,დასაქმება,0.16,0.54,0.16,0.0,1.5,right,776.59,776.59
2025-11-13T07:44:26.022,8,instagram,C:\Users\Nadira\Documents\Experiments\visual-evoked-potentials\psychopy_experiments\media/logos/instagram.png,კარიერა,0.16,0.54,0.16,0.0,1.5,right,844.71,844.71
2025-11-13T07:44:28.318,9,instagram,C:\Users\Nadira\Documents\Experiments\visual-evoked-potentials\psychopy_experiments\media/logos/instagram.png,მოგზაურობა,0.16,0.54,0.16,0.0,1.5,right,1029.59,1029.59
2025-11-13T07:44:30.500,10,instagram,C:\Users\Nadira\Documents\Experiments\visual-evoked-potentials\psychopy_experiments\media/logos/instagram.png,ვიოლინო,0.16,0.54,0.16,0.0,1.5,left,927.8,927.8
2025-11-13T07:44:32.966,11,instagram,C:\Users\Nadira\Documents\Experiments\visual-evoked-potentials\psychopy_experiments\media/logos/instagram.png,ოკეანე,0.16,0.54,0.16,0.0,1.5,left,1197.23,1197.23
2025-11-13T07:44:34.932,12,instagram,C:\Users\Nadira\Documents\Experiments\visual-evoked-potentials\psychopy_experiments\media/logos/instagram.png,პეპელა,0.16,0.54,0.16,0.0,1.5,left,712.07,712.07
2025-11-13T07:44:37.261,13,linkedin,C:\Users\Nadira\Documents\Experiments\visual-evoked-potentials\psychopy_experiments\media/logos/linkedin.png,ცისარტყელა,0.16,0.54,0.16,0.0,1.5,left,1026.92,1026.92
2025-11-13T07:44:39.193,14,instagram,C:\Users\Nadira\Documents\Experiments\visual-evoked-potentials\psychopy_experiments\media/logos/instagram.png,ვიოლინო,0.16,0.54,0.16,0.0,1.5,left,664.0,664.0
2025-11-13T07:44:41.157,15,instagram,C:\Users\Nadira\Documents\Experiments\visual-evoked-potentials\psychopy_experiments\media/logos/instagram.png,მთები,0.16,0.54,0.16,0.0,1.5,left,693.12,693.12
2025-11-13T07:44:43.373,16,instagram,C:\Users\Nadira\Documents\Experiments\visual-evoked-potentials\psychopy_experiments\media/logos/instagram.png,ნეთვორქინგი,0.16,0.54,0.16,0.0,1.5,left,946.84,946.84
2025-11-13T07:44:45.654,17,instagram,C:\Users\Nadira\Documents\Experiments\visual-evoked-potentials\psychopy_experiments\media/logos/instagram.png,კარიერა,0.16,0.54,0.16,0.0,1.5,left,1027.84,1027.84
2025-11-13T07:44:47.668,18,linkedin,C:\Users\Nadira\Documents\Experiments\visual-evoked-potentials\psychopy_experiments\media/logos/linkedin.png,პროფესიონალები,0.16,0.54,0.16,0.0,1.5,right,731.31,731.31
2025-11-13T07:44:49.883,19,linkedin,C:\Users\Nadira\Documents\Experiments\visual-evoked-potentials\psychopy_experiments\media/logos/linkedin.png,დასაქმება,0.16,0.54,0.16,0.0,1.5,right,930.78,930.78
2025-11-13T07:44:52.066,20,linkedin,C:\Users\Nadira\Documents\Experiments\visual-evoked-potentials\psychopy_experiments\media/logos/linkedin.png,ლურჯი,0.16,0.54,0.16,0.0,1.5,left,892.57,892.57
2025-11-13T07:44:54.313,21,instagram,C:\Users\Nadira\Documents\Experiments\visual-evoked-potentials\psychopy_experiments\media/logos/instagram.png,პეპელა,0.16,0.54,0.16,0.0,1.5,left,980.94,980.94
2025-11-13T07:44:56.862,22,linkedin,C:\Users\Nadira\Documents\Experiments\visual-evoked-potentials\psychopy_experiments\media/logos/linkedin.png,მოგონებები,0.16,0.54,0.16,0.0,1.5,left,1246.16,1246.16
2025-11-13T07:44:59.075,23,linkedin,C:\Users\Nadira\Documents\Experiments\visual-evoked-potentials\psychopy_experiments\media/logos/linkedin.png,ლურჯი,0.16,0.54,0.16,0.0,1.5,right,928.73,928.73
2025-11-13T07:45:01.507,24,instagram,C:\Users\Nadira\Documents\Experiments\visual-evoked-potentials\psychopy_experiments\media/logos/instagram.png,შესაძლებლობა,0.16,0.54,0.16,0.0,1.5,left,1162.47,1162.47
2025-11-13T07:45:03.706,25,instagram,C:\Users\Nadira\Documents\Experiments\visual-evoked-potentials\psychopy_experiments\media/logos/instagram.png,სანთელი,0.16,0.54,0.16,0.0,1.5,left,930.03,930.03
2025-11-13T07:45:05.954,26,instagram,C:\Users\Nadira\Documents\Experiments\visual-evoked-potentials\psychopy_experiments\media/logos/instagram.png,გაზიარება,0.16,0.54,0.16,0.0,1.5,right,996.31,996.31
2025-11-13T07:45:08.101,27,instagram,C:\Users\Nadira\Documents\Experiments\visual-evoked-potentials\psychopy_experiments\media/logos/instagram.png,ლურჯი,0.16,0.54,0.16,0.0,1.5,left,895.28,895.28
2025-11-13T07:45:10.483,28,linkedin,C:\Users\Nadira\Documents\Experiments\visual-evoked-potentials\psychopy_experiments\media/logos/linkedin.png,ნეთვორქინგი,0.16,0.54,0.16,0.0,1.5,right,1095.64,1095.64
2025-11-13T07:45:12.730,29,instagram,C:\Users\Nadira\Documents\Experiments\visual-evoked-potentials\psychopy_experiments\media/logos/instagram.png,გართობა,0.16,0.54,0.16,0.0,1.5,right,979.27,979.27
2025-11-13T07:45:14.846,30,instagram,C:\Users\Nadira\Documents\Experiments\visual-evoked-potentials\psychopy_experiments\media/logos/instagram.png,ლურჯი,0.16,0.54,0.16,0.0,1.5,left,845.62,845.62
2025-11-13T07:45:16.943,31,instagram,C:\Users\Nadira\Documents\Experiments\visual-evoked-potentials\psychopy_experiments\media/logos/instagram.png,სანთელი,0.16,0.54,0.16,0.0,1.5,left,831.21,831.21
2025-11-13T07:45:19.042,32,instagram,C:\Users\Nadira\Documents\Experiments\visual-evoked-potentials\psychopy_experiments\media/logos/instagram.png,ინდუსტრია,0.16,0.54,0.16,0.0,1.5,left,845.86,845.86
2025-11-13T07:45:21.289,33,linkedin,C:\Users\Nadira\Documents\Experiments\visual-evoked-potentials\psychopy_experiments\media/logos/linkedin.png,ოკეანე,0.16,0.54,0.16,0.0,1.5,left,963.93,963.93
2025-11-13T07:45:23.339,34,instagram,C:\Users\Nadira\Documents\Experiments\visual-evoked-potentials\psychopy_experiments\media/logos/instagram.png,რეზიუმე,0.16,0.54,0.16,0.0,1.5,left,780.17,780.17
2025-11-13T07:45:25.452,35,instagram,C:\Users\Nadira\Documents\Experiments\visual-evoked-potentials\psychopy_experiments\media/logos/instagram.png,პროფესიონალები,0.16,0.54,0.16,0.0,1.5,left,846.21,846.21
2025-11-13T07:45:27.550,36,instagram,C:\Users\Nadira\Documents\Experiments\visual-evoked-potentials\psychopy_experiments\media/logos/instagram.png,ვიოლინო,0.16,0.54,0.16,0.0,1.5,left,827.68,827.68
2025-11-13T07:45:29.700,37,instagram,C:\Users\Nadira\Documents\Experiments\visual-evoked-potentials\psychopy_experiments\media/logos/instagram.png,ნეთვორქინგი,0.16,0.54,0.16,0.0,1.5,left,880.49,880.49
2025-11-13T07:45:31.780,38,instagram,C:\Users\Nadira\Documents\Experiments\visual-evoked-potentials\psychopy_experiments\media/logos/instagram.png,აგური,0.16,0.54,0.16,0.0,1.5,left,814.19,814.19
2025-11-13T07:45:33.880,39,instagram,C:\Users\Nadira\Documents\Experiments\visual-evoked-potentials\psychopy_experiments\media/logos/instagram.png,სთორი,0.16,0.54,0.16,0.0,1.5,right,830.86,830.86
2025-11-13T07:45:35.961,40,instagram,C:\Users\Nadira\Documents\Experiments\visual-evoked-potentials\psychopy_experiments\media/logos/instagram.png,ინდუსტრია,0.16,0.54,0.16,0.0,1.5,left,813.26,813.26
2025-11-13T07:45:38.109,41,instagram,C:\Users\Nadira\Documents\Experiments\visual-evoked-potentials\psychopy_experiments\media/logos/instagram.png,სამსახური,0.16,0.54,0.16,0.0,1.5,left,898.46,898.46
2025-11-13T07:45:40.174,42,linkedin,C:\Users\Nadira\Documents\Experiments\visual-evoked-potentials\psychopy_experiments\media/logos/linkedin.png,სთორი,0.16,0.54,0.16,0.0,1.5,left,780.38,780.38
2025-11-13T07:45:42.571,43,linkedin,C:\Users\Nadira\Documents\Experiments\visual-evoked-potentials\psychopy_experiments\media/logos/linkedin.png,მოგზაურობა,0.16,0.54,0.16,0.0,1.5,left,1113.69,1113.69
2025-11-13T07:45:44.853,44,instagram,C:\Users\Nadira\Documents\Experiments\visual-evoked-potentials\psychopy_experiments\media/logos/instagram.png,ესთეტიური,0.16,0.54,0.16,0.0,1.5,left,1012.84,1012.84
2025-11-13T07:45:47.117,45,linkedin,C:\Users\Nadira\Documents\Experiments\visual-evoked-potentials\psychopy_experiments\media/logos/linkedin.png,ცისარტყელა,0.16,0.54,0.16,0.0,1.5,left,962.51,962.51
2025-11-13T07:45:49.598,46,linkedin,C:\Users\Nadira\Documents\Experiments\visual-evoked-potentials\psychopy_experiments\media/logos/linkedin.png,ფოტოები,0.16,0.54,0.16,0.0,1.5,left,1196.5,1196.5
2025-11-13T07:45:51.629,47,instagram,C:\Users\Nadira\Documents\Experiments\visual-evoked-potentials\psychopy_experiments\media/logos/instagram.png,ბალიში,0.16,0.54,0.16,0.0,1.5,left,763.27,763.27
2025-11-13T07:45:53.979,48,linkedin,C:\Users\Nadira\Documents\Experiments\visual-evoked-potentials\psychopy_experiments\media/logos/linkedin.png,გაზიარება,0.16,0.54,0.16,0.0,1.5,left,1064.47,1064.47
2025-11-13T07:45:56.009,49,linkedin,C:\Users\Nadira\Documents\Experiments\visual-evoked-potentials\psychopy_experiments\media/logos/linkedin.png,აგური,0.16,0.54,0.16,0.0,1.5,left,747.37,747.37
2025-11-13T07:45:58.257,50,instagram,C:\Users\Nadira\Documents\Experiments\visual-evoked-potentials\psychopy_experiments\media/logos/instagram.png,მთები,0.16,0.54,0.16,0.0,1.5,left,979.74,979.74
2025-11-13T07:46:00.322,51,linkedin,C:\Users\Nadira\Documents\Experiments\visual-evoked-potentials\psychopy_experiments\media/logos/linkedin.png,გართობა,0.16,0.54,0.16,0.0,1.5,left,763.69,763.69
2025-11-13T07:46:02.337,52,instagram,C:\Users\Nadira\Documents\Experiments\visual-evoked-potentials\psychopy_experiments\media/logos/instagram.png,პროფესიონალები,0.16,0.54,0.16,0.0,1.5,left,747.99,747.99
2025-11-13T07:46:04.601,53,linkedin,C:\Users\Nadira\Documents\Experiments\visual-evoked-potentials\psychopy_experiments\media/logos/linkedin.png,ინდუსტრია,0.16,0.54,0.16,0.0,1.5,right,980.29,980.29
2025-11-13T07:46:06.650,54,linkedin,C:\Users\Nadira\Documents\Experiments\visual-evoked-potentials\psychopy_experiments\media/logos/linkedin.png,ფოტოები,0.16,0.54,0.16,0.0,1.5,left,763.95,763.95
2025-11-13T07:46:08.698,55,instagram,C:\Users\Nadira\Documents\Experiments\visual-evoked-potentials\psychopy_experiments\media/logos/instagram.png,მოგზაურობა,0.16,0.54,0.16,0.0,1.5,right,779.19,779.19
2025-11-13T07:46:10.863,56,linkedin,C:\Users\Nadira\Documents\Experiments\visual-evoked-potentials\psychopy_experiments\media/logos/linkedin.png,შესაძლებლობა,0.16,0.54,0.16,0.0,1.5,right,879.85,879.85
2025-11-13T07:46:13.028,57,instagram,C:\Users\Nadira\Documents\Experiments\visual-evoked-potentials\psychopy_experiments\media/logos/instagram.png,პეპელა,0.16,0.54,0.16,0.0,1.5,left,897.31,897.31
2025-11-13T07:46:15.160,58,linkedin,C:\Users\Nadira\Documents\Experiments\visual-evoked-potentials\psychopy_experiments\media/logos/linkedin.png,რეზიუმე,0.16,0.54,0.16,0.0,1.5,right,846.53,846.53
2025-11-13T07:46:17.324,59,linkedin,C:\Users\Nadira\Documents\Experiments\visual-evoked-potentials\psychopy_experiments\media/logos/linkedin.png,გაზიარება,0.16,0.54,0.16,0.0,1.5,left,862.58,862.58
2025-11-13T07:46:19.423,60,linkedin,C:\Users\Nadira\Documents\Experiments\visual-evoked-potentials\psychopy_experiments\media/logos/linkedin.png,შესაძლებლობა,0.16,0.54,0.16,0.0,1.5,right,813.52,813.52
2025-11-13T07:46:21.386,61,linkedin,C:\Users\Nadira\Documents\Experiments\visual-evoked-potentials\psychopy_experiments\media/logos/linkedin.png,პროფესიონალები,0.16,0.54,0.16,0.0,1.5,right,679.93,679.93
2025-11-13T07:46:23.884,62,instagram,C:\Users\Nadira\Documents\Experiments\visual-evoked-potentials\psychopy_experiments\media/logos/instagram.png,უნარები,0.16,0.54,0.16,0.0,1.5,right,1231.14,1231.14
2025-11-13T07:46:25.916,63,instagram,C:\Users\Nadira\Documents\Experiments\visual-evoked-potentials\psychopy_experiments\media/logos/instagram.png,დასაქმება,0.16,0.54,0.16,0.0,1.5,left,762.54,762.54
2025-11-13T07:46:28.647,64,linkedin,C:\Users\Nadira\Documents\Experiments\visual-evoked-potentials\psychopy_experiments\media/logos/linkedin.png,რეზიუმე,0.16,0.54,0.16,0.0,1.5,right,1445.98,1445.98
2025-11-13T07:46:30.546,65,instagram,C:\Users\Nadira\Documents\Experiments\visual-evoked-potentials\psychopy_experiments\media/logos/instagram.png,აგური,0.16,0.54,0.16,0.0,1.5,left,646.96,646.96
2025-11-13T07:46:32.479,66,linkedin,C:\Users\Nadira\Documents\Experiments\visual-evoked-potentials\psychopy_experiments\media/logos/linkedin.png,ესთეტიური,0.16,0.54,0.16,0.0,1.5,left,662.58,662.58
2025-11-13T07:46:34.825,67,linkedin,C:\Users\Nadira\Documents\Experiments\visual-evoked-potentials\psychopy_experiments\media/logos/linkedin.png,სელფი,0.16,0.54,0.16,0.0,1.5,left,1064.04,1064.04
2025-11-13T07:46:36.741,68,linkedin,C:\Users\Nadira\Documents\Experiments\visual-evoked-potentials\psychopy_experiments\media/logos/linkedin.png,პეპელა,0.16,0.54,0.16,0.0,1.5,left,629.39,629.39
2025-11-13T07:46:38.789,69,instagram,C:\Users\Nadira\Documents\Experiments\visual-evoked-potentials\psychopy_experiments\media/logos/instagram.png,დასაქმება,0.16,0.54,0.16,0.0,1.5,left,797.34,797.34
2025-11-13T07:46:40.838,70,instagram,C:\Users\Nadira\Documents\Experiments\visual-evoked-potentials\psychopy_experiments\media/logos/instagram.png,ესთეტიური,0.16,0.54,0.16,0.0,1.5,right,796.98,796.98
2025-11-13T07:46:42.951,71,linkedin,C:\Users\Nadira\Documents\Experiments\visual-evoked-potentials\psychopy_experiments\media/logos/linkedin.png,ესთეტიური,0.16,0.54,0.16,0.0,1.5,left,833.78,833.78
2025-11-13T07:46:45.517,72,instagram,C:\Users\Nadira\Documents\Experiments\visual-evoked-potentials\psychopy_experiments\media/logos/instagram.png,ნეთვორქინგი,0.16,0.54,0.16,0.0,1.5,left,1311.69,1311.69
2025-11-13T07:46:47.547,73,instagram,C:\Users\Nadira\Documents\Experiments\visual-evoked-potentials\psychopy_experiments\media/logos/instagram.png,ინფლუენსერი,0.16,0.54,0.16,0.0,1.5,right,764.05,764.05
2025-11-13T07:46:49.763,74,instagram,C:\Users\Nadira\Documents\Experiments\visual-evoked-potentials\psychopy_experiments\media/logos/instagram.png,კარიერა,0.16,0.54,0.16,0.0,1.5,left,945.88,945.88
2025-11-13T07:46:51.993,75,linkedin,C:\Users\Nadira\Documents\Experiments\visual-evoked-potentials\psychopy_experiments\media/logos/linkedin.png,ნეთვორქინგი,0.16,0.54,0.16,0.0,1.5,right,947.45,947.45
2025-11-13T07:46:54.158,76,linkedin,C:\Users\Nadira\Documents\Experiments\visual-evoked-potentials\psychopy_experiments\media/logos/linkedin.png,ვიოლინო,0.16,0.54,0.16,0.0,1.5,left,878.26,878.26
2025-11-13T07:46:56.372,77,instagram,C:\Users\Nadira\Documents\Experiments\visual-evoked-potentials\psychopy_experiments\media/logos/instagram.png,გართობა,0.16,0.54,0.16,0.0,1.5,right,946.02,946.02
2025-11-13T07:46:58.505,78,instagram,C:\Users\Nadira\Documents\Experiments\visual-evoked-potentials\psychopy_experiments\media/logos/instagram.png,ინსპირაცია,0.16,0.54,0.16,0.0,1.5,right,861.85,861.85
2025-11-13T07:47:00.621,79,instagram,C:\Users\Nadira\Documents\Experiments\visual-evoked-potentials\psychopy_experiments\media/logos/instagram.png,ბალიში,0.16,0.54,0.16,0.0,1.5,left,863.02,863.02
2025-11-13T07:47:02.668,80,instagram,C:\Users\Nadira\Documents\Experiments\visual-evoked-potentials\psychopy_experiments\media/logos/instagram.png,უნარები,0.16,0.54,0.16,0.0,1.5,left,780.98,780.98
2025-11-13T07:47:05.264,81,instagram,C:\Users\Nadira\Documents\Experiments\visual-evoked-potentials\psychopy_experiments\media/logos/instagram.png,სელფი,0.16,0.54,0.16,0.0,1.5,left,1330.4,1330.4
2025-11-13T07:47:07.713,82,instagram,C:\Users\Nadira\Documents\Experiments\visual-evoked-potentials\psychopy_experiments\media/logos/instagram.png,გაზიარება,0.16,0.54,0.16,0.0,1.5,right,1182.41,1182.41
2025-11-13T07:47:09.763,83,linkedin,C:\Users\Nadira\Documents\Experiments\visual-evoked-potentials\psychopy_experiments\media/logos/linkedin.png,კარიერა,0.16,0.54,0.16,0.0,1.5,right,781.34,781.34
2025-11-13T07:47:12.526,84,instagram,C:\Users\Nadira\Documents\Experiments\visual-evoked-potentials\psychopy_experiments\media/logos/instagram.png,ფოტოები,0.16,0.54,0.16,0.0,1.5,,,
2025-11-13T07:47:14.424,85,instagram,C:\Users\Nadira\Documents\Experiments\visual-evoked-potentials\psychopy_experiments\media/logos/instagram.png,ინდუსტრია,0.16,0.54,0.16,0.0,1.5,left,630.59,630.59
2025-11-13T07:47:16.688,86,instagram,C:\Users\Nadira\Documents\Experiments\visual-evoked-potentials\psychopy_experiments\media/logos/instagram.png,ოკეანე,0.16,0.54,0.16,0.0,1.5,left,1013.63,1013.63
2025-11-13T07:47:19.237,87,linkedin,C:\Users\Nadira\Documents\Experiments\visual-evoked-potentials\psychopy_experiments\media/logos/linkedin.png,ბურთი,0.16,0.54,0.16,0.0,1.5,left,1263.56,1263.56
2025-11-13T07:47:21.334,88,linkedin,C:\Users\Nadira\Documents\Experiments\visual-evoked-potentials\psychopy_experiments\media/logos/linkedin.png,პეპელა,0.16,0.54,0.16,0.0,1.5,left,829.9,829.9
2025-11-13T07:47:23.451,89,linkedin,C:\Users\Nadira\Documents\Experiments\visual-evoked-potentials\psychopy_experiments\media/logos/linkedin.png,ლურჯი,0.16,0.54,0.16,0.0,1.5,right,830.11,830.11
2025-11-13T07:47:26.114,90,linkedin,C:\Users\Nadira\Documents\Experiments\visual-evoked-potentials\psychopy_experiments\media/logos/linkedin.png,ინსპირაცია,0.16,0.54,0.16,0.0,1.5,left,1378.47,1378.47
2025-11-13T07:47:28.047,91,linkedin,C:\Users\Nadira\Documents\Experiments\visual-evoked-potentials\psychopy_experiments\media/logos/linkedin.png,შესაძლებლობა,0.16,0.54,0.16,0.0,1.5,right,664.43,664.43
2025-11-13T07:47:30.127,92,instagram,C:\Users\Nadira\Documents\Experiments\visual-evoked-potentials\psychopy_experiments\media/logos/instagram.png,ცისარტყელა,0.16,0.54,0.16,0.0,1.5,left,814.31,814.31
2025-11-13T07:47:32.575,93,linkedin,C:\Users\Nadira\Documents\Experiments\visual-evoked-potentials\psychopy_experiments\media/logos/linkedin.png,ფოტოები,0.16,0.54,0.16,0.0,1.5,left,1163.45,1163.45
2025-11-13T07:47:35.339,94,instagram,C:\Users\Nadira\Documents\Experiments\visual-evoked-potentials\psychopy_experiments\media/logos/instagram.png,ცისარტყელა,0.16,0.54,0.16,0.0,1.5,,,
2025-11-13T07:47:37.436,95,linkedin,C:\Users\Nadira\Documents\Experiments\visual-evoked-potentials\psychopy_experiments\media/logos/linkedin.png,დასაქმება,0.16,0.54,0.16,0.0,1.5,right,815.12,815.12
2025-11-13T07:47:39.519,96,instagram,C:\Users\Nadira\Documents\Experiments\visual-evoked-potentials\psychopy_experiments\media/logos/instagram.png,ოკეანე,0.16,0.54,0.16,0.0,1.5,left,812.27,812.27
2025-11-13T07:47:41.734,97,linkedin,C:\Users\Nadira\Documents\Experiments\visual-evoked-potentials\psychopy_experiments\media/logos/linkedin.png,სთორი,0.16,0.54,0.16,0.0,1.5,left,915.33,915.33
2025-11-13T07:47:43.665,98,linkedin,C:\Users\Nadira\Documents\Experiments\visual-evoked-potentials\psychopy_experiments\media/logos/linkedin.png,უნარები,0.16,0.54,0.16,0.0,1.5,right,648.63,648.63
2025-11-13T07:47:45.731,99,linkedin,C:\Users\Nadira\Documents\Experiments\visual-evoked-potentials\psychopy_experiments\media/logos/linkedin.png,მთები,0.16,0.54,0.16,0.0,1.5,left,779.84,779.84
2025-11-13T07:48:17.553,100,linkedin,C:\Users\Nadira\Documents\Experiments\visual-evoked-potentials\psychopy_experiments\media/logos/linkedin.png,ინფლუენსერი,0.16,0.54,0.16,0.0,1.5,left,1056.51,1056.51
2025-11-13T07:48:19.451,101,linkedin,C:\Users\Nadira\Documents\Experiments\visual-evoked-potentials\psychopy_experiments\media/logos/linkedin.png,პროფესიონალები,0.16,0.54,0.16,0.0,1.5,right,611.75,611.75
2025-11-13T07:48:21.383,102,instagram,C:\Users\Nadira\Documents\Experiments\visual-evoked-potentials\psychopy_experiments\media/logos/instagram.png,ბურთი,0.16,0.54,0.16,0.0,1.5,left,662.44,662.44
2025-11-13T07:48:23.197,103,instagram,C:\Users\Nadira\Documents\Experiments\visual-evoked-potentials\psychopy_experiments\media/logos/instagram.png,აგური,0.16,0.54,0.16,0.0,1.5,left,545.48,545.48
2025-11-13T07:48:25.363,104,linkedin,C:\Users\Nadira\Documents\Experiments\visual-evoked-potentials\psychopy_experiments\media/logos/linkedin.png,სთორი,0.16,0.54,0.16,0.0,1.5,left,863.78,863.78
2025-11-13T07:48:27.728,105,instagram,C:\Users\Nadira\Documents\Experiments\visual-evoked-potentials\psychopy_experiments\media/logos/instagram.png,მოგონებები,0.16,0.54,0.16,0.0,1.5,right,1113.57,1113.57
2025-11-13T07:48:29.625,106,instagram,C:\Users\Nadira\Documents\Experiments\visual-evoked-potentials\psychopy_experiments\media/logos/instagram.png,ინსპირაცია,0.16,0.54,0.16,0.0,1.5,right,629.21,629.21
2025-11-13T07:48:31.623,107,instagram,C:\Users\Nadira\Documents\Experiments\visual-evoked-potentials\psychopy_experiments\media/logos/instagram.png,მოგონებები,0.16,0.54,0.16,0.0,1.5,right,730.43,730.43
2025-11-13T07:48:33.505,108,linkedin,C:\Users\Nadira\Documents\Experiments\visual-evoked-potentials\psychopy_experiments\media/logos/linkedin.png,აგური,0.16,0.54,0.16,0.0,1.5,left,598.17,598.17
2025-11-13T07:48:35.621,109,linkedin,C:\Users\Nadira\Documents\Experiments\visual-evoked-potentials\psychopy_experiments\media/logos/linkedin.png,გართობა,0.16,0.54,0.16,0.0,1.5,left,844.94,844.94
2025-11-13T07:48:38.118,110,linkedin,C:\Users\Nadira\Documents\Experiments\visual-evoked-potentials\psychopy_experiments\media/logos/linkedin.png,გაზიარება,0.16,0.54,0.16,0.0,1.5,right,1229.66,1229.66
2025-11-13T07:48:40.815,111,instagram,C:\Users\Nadira\Documents\Experiments\visual-evoked-potentials\psychopy_experiments\media/logos/instagram.png,მოგზაურობა,0.16,0.54,0.16,0.0,1.5,right,1431.03,1431.03
2025-11-13T07:48:42.831,112,linkedin,C:\Users\Nadira\Documents\Experiments\visual-evoked-potentials\psychopy_experiments\media/logos/linkedin.png,ვიოლინო,0.16,0.54,0.16,0.0,1.5,left,711.48,711.48
2025-11-13T07:48:45.078,113,linkedin,C:\Users\Nadira\Documents\Experiments\visual-evoked-potentials\psychopy_experiments\media/logos/linkedin.png,სამსახური,0.16,0.54,0.16,0.0,1.5,right,964.65,964.65
2025-11-13T07:48:47.210,114,linkedin,C:\Users\Nadira\Documents\Experiments\visual-evoked-potentials\psychopy_experiments\media/logos/linkedin.png,მოგზაურობა,0.16,0.54,0.16,0.0,1.5,left,846.77,846.77
2025-11-13T07:48:49.092,115,instagram,C:\Users\Nadira\Documents\Experiments\visual-evoked-potentials\psychopy_experiments\media/logos/instagram.png,სანთელი,0.16,0.54,0.16,0.0,1.5,left,612.91,612.91
2025-11-13T07:48:51.872,116,linkedin,C:\Users\Nadira\Documents\Experiments\visual-evoked-potentials\psychopy_experiments\media/logos/linkedin.png,წიგნი,0.16,0.54,0.16,0.0,1.5,left,1494.79,1494.79
2025-11-13T07:48:54.137,117,instagram,C:\Users\Nadira\Documents\Experiments\visual-evoked-potentials\psychopy_experiments\media/logos/instagram.png,ლურჯი,0.16,0.54,0.16,0.0,1.5,left,994.62,994.62
2025-11-13T07:48:56.302,118,instagram,C:\Users\Nadira\Documents\Experiments\visual-evoked-potentials\psychopy_experiments\media/logos/instagram.png,გაზიარება,0.16,0.54,0.16,0.0,1.5,right,894.99,894.99
2025-11-13T07:48:59.084,119,linkedin,C:\Users\Nadira\Documents\Experiments\visual-evoked-potentials\psychopy_experiments\media/logos/linkedin.png,გართობა,0.16,0.54,0.16,0.0,1.5,,,
2025-11-13T07:49:01.647,120,linkedin,C:\Users\Nadira\Documents\Experiments\visual-evoked-potentials\psychopy_experiments\media/logos/linkedin.png,კარიერა,0.16,0.54,0.16,0.0,1.5,left,1279.22,1279.22
2025-11-13T07:49:04.413,121,linkedin,C:\Users\Nadira\Documents\Experiments\visual-evoked-potentials\psychopy_experiments\media/logos/linkedin.png,აგური,0.16,0.54,0.16,0.0,1.5,,,
2025-11-13T07:49:06.360,122,linkedin,C:\Users\Nadira\Documents\Experiments\visual-evoked-potentials\psychopy_experiments\media/logos/linkedin.png,ბურთი,0.16,0.54,0.16,0.0,1.5,left,680.38,680.38
2025-11-13T07:49:08.258,123,instagram,C:\Users\Nadira\Documents\Experiments\visual-evoked-potentials\psychopy_experiments\media/logos/instagram.png,სამსახური,0.16,0.54,0.16,0.0,1.5,left,631.43,631.43
2025-11-13T07:49:10.207,124,instagram,C:\Users\Nadira\Documents\Experiments\visual-evoked-potentials\psychopy_experiments\media/logos/instagram.png,სთორი,0.16,0.54,0.16,0.0,1.5,right,697.07,697.07
2025-11-13T07:49:12.105,125,linkedin,C:\Users\Nadira\Documents\Experiments\visual-evoked-potentials\psychopy_experiments\media/logos/linkedin.png,პროფესიონალები,0.16,0.54,0.16,0.0,1.5,right,597.27,597.27
2025-11-13T07:49:14.003,126,linkedin,C:\Users\Nadira\Documents\Experiments\visual-evoked-potentials\psychopy_experiments\media/logos/linkedin.png,ცისარტყელა,0.16,0.54,0.16,0.0,1.5,left,611.99,611.99
2025-11-13T07:49:16.251,127,linkedin,C:\Users\Nadira\Documents\Experiments\visual-evoked-potentials\psychopy_experiments\media/logos/linkedin.png,ცისარტყელა,0.16,0.54,0.16,0.0,1.5,left,965.62,965.62
2025-11-13T07:49:18.132,128,instagram,C:\Users\Nadira\Documents\Experiments\visual-evoked-potentials\psychopy_experiments\media/logos/instagram.png,წიგნი,0.16,0.54,0.16,0.0,1.5,left,612.16,612.16
2025-11-13T07:49:20.015,129,instagram,C:\Users\Nadira\Documents\Experiments\visual-evoked-potentials\psychopy_experiments\media/logos/instagram.png,ბურთი,0.16,0.54,0.16,0.0,1.5,left,646.28,646.28
2025-11-13T07:49:21.997,130,instagram,C:\Users\Nadira\Documents\Experiments\visual-evoked-potentials\psychopy_experiments\media/logos/instagram.png,წიგნი,0.16,0.54,0.16,0.0,1.5,left,713.6,713.6
2025-11-13T07:49:23.845,131,instagram,C:\Users\Nadira\Documents\Experiments\visual-evoked-potentials\psychopy_experiments\media/logos/instagram.png,აგური,0.16,0.54,0.16,0.0,1.5,left,580.31,580.31
2025-11-13T07:49:25.726,132,linkedin,C:\Users\Nadira\Documents\Experiments\visual-evoked-potentials\psychopy_experiments\media/logos/linkedin.png,ბალიში,0.16,0.54,0.16,0.0,1.5,left,597.76,597.76
2025-11-13T07:49:28.442,133,linkedin,C:\Users\Nadira\Documents\Experiments\visual-evoked-potentials\psychopy_experiments\media/logos/linkedin.png,სელფი,0.16,0.54,0.16,0.0,1.5,left,1430.43,1430.43
2025-11-13T07:49:30.356,134,linkedin,C:\Users\Nadira\Documents\Experiments\visual-evoked-potentials\psychopy_experiments\media/logos/linkedin.png,ნეთვორქინგი,0.16,0.54,0.16,0.0,1.5,right,629.99,629.99
2025-11-13T07:49:32.470,135,instagram,C:\Users\Nadira\Documents\Experiments\visual-evoked-potentials\psychopy_experiments\media/logos/instagram.png,ფოტოები,0.16,0.54,0.16,0.0,1.5,right,847.52,847.52
2025-11-13T07:49:34.352,136,instagram,C:\Users\Nadira\Documents\Experiments\visual-evoked-potentials\psychopy_experiments\media/logos/instagram.png,რეზიუმე,0.16,0.54,0.16,0.0,1.5,left,647.08,647.08
2025-11-13T07:49:36.333,137,linkedin,C:\Users\Nadira\Documents\Experiments\visual-evoked-potentials\psychopy_experiments\media/logos/linkedin.png,სამსახური,0.16,0.54,0.16,0.0,1.5,right,679.38,679.38
2025-11-13T07:49:38.282,138,linkedin,C:\Users\Nadira\Documents\Experiments\visual-evoked-potentials\psychopy_experiments\media/logos/linkedin.png,ინდუსტრია,0.16,0.54,0.16,0.0,1.5,right,661.41,661.41
2025-11-13T07:49:40.147,139,linkedin,C:\Users\Nadira\Documents\Experiments\visual-evoked-potentials\psychopy_experiments\media/logos/linkedin.png,შესაძლებლობა,0.16,0.54,0.16,0.0,1.5,right,580.53,580.53
2025-11-13T07:49:42.112,140,instagram,C:\Users\Nadira\Documents\Experiments\visual-evoked-potentials\psychopy_experiments\media/logos/instagram.png,ესთეტიური,0.16,0.54,0.16,0.0,1.5,left,695.65,695.65
2025-11-13T07:49:43.977,141,instagram,C:\Users\Nadira\Documents\Experiments\visual-evoked-potentials\psychopy_experiments\media/logos/instagram.png,სთორი,0.16,0.54,0.16,0.0,1.5,right,614.68,614.68
2025-11-13T07:49:45.775,142,instagram,C:\Users\Nadira\Documents\Experiments\visual-evoked-potentials\psychopy_experiments\media/logos/instagram.png,ცისარტყელა,0.16,0.54,0.16,0.0,1.5,right,529.31,529.31
2025-11-13T07:49:47.392,143,linkedin,C:\Users\Nadira\Documents\Experiments\visual-evoked-potentials\psychopy_experiments\media/logos/linkedin.png,რეზიუმე,0.16,0.54,0.16,0.0,1.5,left,346.0,346.0
2025-11-13T07:49:49.205,144,linkedin,C:\Users\Nadira\Documents\Experiments\visual-evoked-potentials\psychopy_experiments\media/logos/linkedin.png,წიგნი,0.16,0.54,0.16,0.0,1.5,left,531.28,531.28
2025-11-13T07:49:51.071,145,instagram,C:\Users\Nadira\Documents\Experiments\visual-evoked-potentials\psychopy_experiments\media/logos/instagram.png,ბალიში,0.16,0.54,0.16,0.0,1.5,left,597.92,597.92
2025-11-13T07:49:53.002,146,instagram,C:\Users\Nadira\Documents\Experiments\visual-evoked-potentials\psychopy_experiments\media/logos/instagram.png,უნარები,0.16,0.54,0.16,0.0,1.5,left,664.41,664.41
2025-11-13T07:49:54.883,147,instagram,C:\Users\Nadira\Documents\Experiments\visual-evoked-potentials\psychopy_experiments\media/logos/instagram.png,შესაძლებლობა,0.16,0.54,0.16,0.0,1.5,left,610.55,610.55
2025-11-13T07:49:56.815,148,linkedin,C:\Users\Nadira\Documents\Experiments\visual-evoked-potentials\psychopy_experiments\media/logos/linkedin.png,ინფლუენსერი,0.16,0.54,0.16,0.0,1.5,left,648.28,648.28
2025-11-13T07:49:58.981,149,linkedin,C:\Users\Nadira\Documents\Experiments\visual-evoked-potentials\psychopy_experiments\media/logos/linkedin.png,სთორი,0.16,0.54,0.16,0.0,1.5,right,879.88,879.88
2025-11-13T07:50:01.046,150,linkedin,C:\Users\Nadira\Documents\Experiments\visual-evoked-potentials\psychopy_experiments\media/logos/linkedin.png,მოგზაურობა,0.16,0.54,0.16,0.0,1.5,left,796.25,796.25
2025-11-13T07:50:03.060,151,instagram,C:\Users\Nadira\Documents\Experiments\visual-evoked-potentials\psychopy_experiments\media/logos/instagram.png,მოგონებები,0.16,0.54,0.16,0.0,1.5,left,747.31,747.31
2025-11-13T07:50:05.026,152,linkedin,C:\Users\Nadira\Documents\Experiments\visual-evoked-potentials\psychopy_experiments\media/logos/linkedin.png,ინდუსტრია,0.16,0.54,0.16,0.0,1.5,right,680.23,680.23
2025-11-13T07:50:07.007,153,instagram,C:\Users\Nadira\Documents\Experiments\visual-evoked-potentials\psychopy_experiments\media/logos/instagram.png,ინსპირაცია,0.16,0.54,0.16,0.0,1.5,right,713.3,713.3
2025-11-13T07:50:08.871,154,linkedin,C:\Users\Nadira\Documents\Experiments\visual-evoked-potentials\psychopy_experiments\media/logos/linkedin.png,რეზიუმე,0.16,0.54,0.16,0.0,1.5,right,581.79,581.79
2025-11-13T07:50:10.919,155,linkedin,C:\Users\Nadira\Documents\Experiments\visual-evoked-potentials\psychopy_experiments\media/logos/linkedin.png,სანთელი,0.16,0.54,0.16,0.0,1.5,left,761.48,761.48
2025-11-13T07:50:12.769,156,instagram,C:\Users\Nadira\Documents\Experiments\visual-evoked-potentials\psychopy_experiments\media/logos/instagram.png,სამსახური,0.16,0.54,0.16,0.0,1.5,left,579.56,579.56
2025-11-13T07:50:14.799,157,linkedin,C:\Users\Nadira\Documents\Experiments\visual-evoked-potentials\psychopy_experiments\media/logos/linkedin.png,ოკეანე,0.16,0.54,0.16,0.0,1.5,left,746.69,746.69
2025-11-13T07:50:16.664,158,instagram,C:\Users\Nadira\Documents\Experiments\visual-evoked-potentials\psychopy_experiments\media/logos/instagram.png,სელფი,0.16,0.54,0.16,0.0,1.5,right,596.41,596.41
2025-11-13T07:50:18.432,159,linkedin,C:\Users\Nadira\Documents\Experiments\visual-evoked-potentials\psychopy_experiments\media/logos/linkedin.png,ოკეანე,0.16,0.54,0.16,0.0,1.5,left,496.97,496.97
2025-11-13T07:50:20.195,160,linkedin,C:\Users\Nadira\Documents\Experiments\visual-evoked-potentials\psychopy_experiments\media/logos/linkedin.png,კარიერა,0.16,0.54,0.16,0.0,1.5,right,481.09,481.09
2025-11-13T07:50:21.993,161,linkedin,C:\Users\Nadira\Documents\Experiments\visual-evoked-potentials\psychopy_experiments\media/logos/linkedin.png,ვიოლინო,0.16,0.54,0.16,0.0,1.5,left,513.77,513.77
2025-11-13T07:50:23.975,162,linkedin,C:\Users\Nadira\Documents\Experiments\visual-evoked-potentials\psychopy_experiments\media/logos/linkedin.png,ინფლუენსერი,0.16,0.54,0.16,0.0,1.5,left,697.02,697.02
2025-11-13T07:50:25.840,163,instagram,C:\Users\Nadira\Documents\Experiments\visual-evoked-potentials\psychopy_experiments\media/logos/instagram.png,ფოტოები,0.16,0.54,0.16,0.0,1.5,left,595.8,595.8
2025-11-13T07:50:27.806,164,instagram,C:\Users\Nadira\Documents\Experiments\visual-evoked-potentials\psychopy_experiments\media/logos/instagram.png,სანთელი,0.16,0.54,0.16,0.0,1.5,right,713.29,713.29
2025-11-13T07:50:29.604,165,instagram,C:\Users\Nadira\Documents\Experiments\visual-evoked-potentials\psychopy_experiments\media/logos/instagram.png,სელფი,0.16,0.54,0.16,0.0,1.5,left,530.32,530.32
2025-11-13T07:50:31.319,166,instagram,C:\Users\Nadira\Documents\Experiments\visual-evoked-potentials\psychopy_experiments\media/logos/instagram.png,ვიოლინო,0.16,0.54,0.16,0.0,1.5,right,448.3,448.3
2025-11-13T07:50:33.234,167,linkedin,C:\Users\Nadira\Documents\Experiments\visual-evoked-potentials\psychopy_experiments\media/logos/linkedin.png,ოკეანე,0.16,0.54,0.16,0.0,1.5,left,631.03,631.03
2025-11-13T07:50:34.999,168,instagram,C:\Users\Nadira\Documents\Experiments\visual-evoked-potentials\psychopy_experiments\media/logos/instagram.png,გართობა,0.16,0.54,0.16,0.0,1.5,right,497.26,497.26
2025-11-13T07:50:36.731,169,instagram,C:\Users\Nadira\Documents\Experiments\visual-evoked-potentials\psychopy_experiments\media/logos/instagram.png,ფოტოები,0.16,0.54,0.16,0.0,1.5,right,463.8,463.8
2025-11-13T07:50:38.413,170,linkedin,C:\Users\Nadira\Documents\Experiments\visual-evoked-potentials\psychopy_experiments\media/logos/linkedin.png,ინსპირაცია,0.16,0.54,0.16,0.0,1.5,right,395.52,395.52
2025-11-13T07:50:40.262,171,instagram,C:\Users\Nadira\Documents\Experiments\visual-evoked-potentials\psychopy_experiments\media/logos/instagram.png,მთები,0.16,0.54,0.16,0.0,1.5,left,580.21,580.21
2025-11-13T07:50:42.142,172,linkedin,C:\Users\Nadira\Documents\Experiments\visual-evoked-potentials\psychopy_experiments\media/logos/linkedin.png,პეპელა,0.16,0.54,0.16,0.0,1.5,left,596.99,596.99
2025-11-13T07:50:43.693,173,linkedin,C:\Users\Nadira\Documents\Experiments\visual-evoked-potentials\psychopy_experiments\media/logos/linkedin.png,პეპელა,0.16,0.54,0.16,0.0,1.5,left,264.67,264.67
2025-11-13T07:50:45.206,174,linkedin,C:\Users\Nadira\Documents\Experiments\visual-evoked-potentials\psychopy_experiments\media/logos/linkedin.png,აგური,0.16,0.54,0.16,0.0,1.5,left,233.11,233.11
2025-11-13T07:50:46.755,175,linkedin,C:\Users\Nadira\Documents\Experiments\visual-evoked-potentials\psychopy_experiments\media/logos/linkedin.png,უნარები,0.16,0.54,0.16,0.0,1.5,left,262.91,262.91
2025-11-13T07:50:48.521,176,instagram,C:\Users\Nadira\Documents\Experiments\visual-evoked-potentials\psychopy_experiments\media/logos/instagram.png,ესთეტიური,0.16,0.54,0.16,0.0,1.5,right,497.92,497.92
2025-11-13T07:50:50.553,177,linkedin,C:\Users\Nadira\Documents\Experiments\visual-evoked-potentials\psychopy_experiments\media/logos/linkedin.png,ინფლუენსერი,0.16,0.54,0.16,0.0,1.5,left,747.71,747.71
2025-11-13T07:50:52.367,178,linkedin,C:\Users\Nadira\Documents\Experiments\visual-evoked-potentials\psychopy_experiments\media/logos/linkedin.png,ნეთვორქინგი,0.16,0.54,0.16,0.0,1.5,left,529.85,529.85
2025-11-13T07:50:54.248,179,instagram,C:\Users\Nadira\Documents\Experiments\visual-evoked-potentials\psychopy_experiments\media/logos/instagram.png,ბურთი,0.16,0.54,0.16,0.0,1.5,left,614.08,614.08
2025-11-13T07:50:55.949,180,linkedin,C:\Users\Nadira\Documents\Experiments\visual-evoked-potentials\psychopy_experiments\media/logos/linkedin.png,მოგონებები,0.16,0.54,0.16,0.0,1.5,right,431.36,431.36
2025-11-13T07:50:57.779,181,linkedin,C:\Users\Nadira\Documents\Experiments\visual-evoked-potentials\psychopy_experiments\media/logos/linkedin.png,მოგზაურობა,0.16,0.54,0.16,0.0,1.5,right,548.42,548.42
2025-11-13T07:51:00.543,182,instagram,C:\Users\Nadira\Documents\Experiments\visual-evoked-potentials\psychopy_experiments\media/logos/instagram.png,დასაქმება,0.16,0.54,0.16,0.0,1.5,,,
2025-11-13T07:51:02.607,183,linkedin,C:\Users\Nadira\Documents\Experiments\visual-evoked-potentials\psychopy_experiments\media/logos/linkedin.png,ლურჯი,0.16,0.54,0.16,0.0,1.5,right,780.17,780.17
2025-11-13T07:51:04.590,184,linkedin,C:\Users\Nadira\Documents\Experiments\visual-evoked-potentials\psychopy_experiments\media/logos/linkedin.png,სამსახური,0.16,0.54,0.16,0.0,1.5,left,696.22,696.22
2025-11-13T07:51:06.540,185,linkedin,C:\Users\Nadira\Documents\Experiments\visual-evoked-potentials\psychopy_experiments\media/logos/linkedin.png,წიგნი,0.16,0.54,0.16,0.0,1.5,left,681.04,681.04
2025-11-13T07:51:08.436,186,linkedin,C:\Users\Nadira\Documents\Experiments\visual-evoked-potentials\psychopy_experiments\media/logos/linkedin.png,მთები,0.16,0.54,0.16,0.0,1.5,left,615.16,615.16
2025-11-13T07:51:10.153,187,linkedin,C:\Users\Nadira\Documents\Experiments\visual-evoked-potentials\psychopy_experiments\media/logos/linkedin.png,ვიოლინო,0.16,0.54,0.16,0.0,1.5,left,428.68,428.68
2025-11-13T07:51:12.117,188,linkedin,C:\Users\Nadira\Documents\Experiments\visual-evoked-potentials\psychopy_experiments\media/logos/linkedin.png,სელფი,0.16,0.54,0.16,0.0,1.5,left,681.08,681.08
2025-11-13T07:51:14.016,189,instagram,C:\Users\Nadira\Documents\Experiments\visual-evoked-potentials\psychopy_experiments\media/logos/instagram.png,ინდუსტრია,0.16,0.54,0.16,0.0,1.5,right,628.34,628.34
2025-11-13T07:51:15.730,190,instagram,C:\Users\Nadira\Documents\Experiments\visual-evoked-potentials\psychopy_experiments\media/logos/instagram.png,ცისარტყელა,0.16,0.54,0.16,0.0,1.5,left,447.01,447.01
2025-11-13T07:51:17.846,191,linkedin,C:\Users\Nadira\Documents\Experiments\visual-evoked-potentials\psychopy_experiments\media/logos/linkedin.png,ინსპირაცია,0.16,0.54,0.16,0.0,1.5,left,829.99,829.99
2025-11-13T07:51:19.594,192,instagram,C:\Users\Nadira\Documents\Experiments\visual-evoked-potentials\psychopy_experiments\media/logos/instagram.png,წიგნი,0.16,0.54,0.16,0.0,1.5,left,479.74,479.74
2025-11-13T07:51:21.341,193,linkedin,C:\Users\Nadira\Documents\Experiments\visual-evoked-potentials\psychopy_experiments\media/logos/linkedin.png,სანთელი,0.16,0.54,0.16,0.0,1.5,left,465.21,465.21
2025-11-13T07:51:23.190,194,instagram,C:\Users\Nadira\Documents\Experiments\visual-evoked-potentials\psychopy_experiments\media/logos/instagram.png,რეზიუმე,0.16,0.54,0.16,0.0,1.5,left,580.86,580.86
2025-11-13T07:51:25.356,195,linkedin,C:\Users\Nadira\Documents\Experiments\visual-evoked-potentials\psychopy_experiments\media/logos/linkedin.png,ფოტოები,0.16,0.54,0.16,0.0,1.5,left,879.6,879.6
2025-11-13T07:51:26.970,196,linkedin,C:\Users\Nadira\Documents\Experiments\visual-evoked-potentials\psychopy_experiments\media/logos/linkedin.png,კარიერა,0.16,0.54,0.16,0.0,1.5,left,332.57,332.57
2025-11-13T07:51:28.719,197,linkedin,C:\Users\Nadira\Documents\Experiments\visual-evoked-potentials\psychopy_experiments\media/logos/linkedin.png,მთები,0.16,0.54,0.16,0.0,1.5,right,464.41,464.41
2025-11-13T07:51:30.351,198,instagram,C:\Users\Nadira\Documents\Experiments\visual-evoked-potentials\psychopy_experiments\media/logos/instagram.png,სამსახური,0.16,0.54,0.16,0.0,1.5,left,363.92,363.92
2025-11-13T07:51:32.032,199,linkedin,C:\Users\Nadira\Documents\Experiments\visual-evoked-potentials\psychopy_experiments\media/logos/linkedin.png,ესთეტიური,0.16,0.54,0.16,0.0,1.5,left,394.72,394.72
2025-11-13T07:52:03.790,200,instagram,C:\Users\Nadira\Documents\Experiments\visual-evoked-potentials\psychopy_experiments\media/logos/instagram.png,გაზიარება,0.16,0.54,0.16,0.0,1.5,right,546.15,546.15
2025-11-13T07:52:05.585,201,instagram,C:\Users\Nadira\Documents\Experiments\visual-evoked-potentials\psychopy_experiments\media/logos/instagram.png,ბალიში,0.16,0.54,0.16,0.0,1.5,left,531.2,531.2
2025-11-13T07:52:07.418,202,linkedin,C:\Users\Nadira\Documents\Experiments\visual-evoked-potentials\psychopy_experiments\media/logos/linkedin.png,უნარები,0.16,0.54,0.16,0.0,1.5,right,531.79,531.79
2025-11-13T07:52:09.483,203,instagram,C:\Users\Nadira\Documents\Experiments\visual-evoked-potentials\psychopy_experiments\media/logos/instagram.png,სელფი,0.16,0.54,0.16,0.0,1.5,left,796.96,796.96
2025-11-13T07:52:11.365,204,instagram,C:\Users\Nadira\Documents\Experiments\visual-evoked-potentials\psychopy_experiments\media/logos/instagram.png,უნარები,0.16,0.54,0.16,0.0,1.5,left,615.45,615.45
2025-11-13T07:52:13.147,205,linkedin,C:\Users\Nadira\Documents\Experiments\visual-evoked-potentials\psychopy_experiments\media/logos/linkedin.png,ბურთი,0.16,0.54,0.16,0.0,1.5,left,513.96,513.96
2025-11-13T07:52:14.879,206,linkedin,C:\Users\Nadira\Documents\Experiments\visual-evoked-potentials\psychopy_experiments\media/logos/linkedin.png,ბურთი,0.16,0.54,0.16,0.0,1.5,left,465.89,465.89
2025-11-13T07:52:16.643,207,instagram,C:\Users\Nadira\Documents\Experiments\visual-evoked-potentials\psychopy_experiments\media/logos/instagram.png,პროფესიონალები,0.16,0.54,0.16,0.0,1.5,left,496.83,496.83
2025-11-13T07:52:18.391,208,linkedin,C:\Users\Nadira\Documents\Experiments\visual-evoked-potentials\psychopy_experiments\media/logos/linkedin.png,ინდუსტრია,0.16,0.54,0.16,0.0,1.5,left,463.03,463.03
2025-11-13T07:52:21.157,209,instagram,C:\Users\Nadira\Documents\Experiments\visual-evoked-potentials\psychopy_experiments\media/logos/instagram.png,ინფლუენსერი,0.16,0.54,0.16,0.0,1.5,,,
2025-11-13T07:52:22.904,210,instagram,C:\Users\Nadira\Documents\Experiments\visual-evoked-potentials\psychopy_experiments\media/logos/instagram.png,პროფესიონალები,0.16,0.54,0.16,0.0,1.5,right,479.36,479.36
2025-11-13T07:52:25.087,211,linkedin,C:\Users\Nadira\Documents\Experiments\visual-evoked-potentials\psychopy_experiments\media/logos/linkedin.png,უნარები,0.16,0.54,0.16,0.0,1.5,left,895.25,895.25
2025-11-13T07:52:27.101,212,instagram,C:\Users\Nadira\Documents\Experiments\visual-evoked-potentials\psychopy_experiments\media/logos/instagram.png,რეზიუმე,0.16,0.54,0.16,0.0,1.5,left,747.04,747.04
2025-11-13T07:52:29.050,213,instagram,C:\Users\Nadira\Documents\Experiments\visual-evoked-potentials\psychopy_experiments\media/logos/instagram.png,კარიერა,0.16,0.54,0.16,0.0,1.5,left,680.05,680.05
2025-11-13T07:52:30.582,214,instagram,C:\Users\Nadira\Documents\Experiments\visual-evoked-potentials\psychopy_experiments\media/logos/instagram.png,გართობა,0.16,0.54,0.16,0.0,1.5,left,264.66,264.66
2025-11-13T07:52:32.348,215,instagram,C:\Users\Nadira\Documents\Experiments\visual-evoked-potentials\psychopy_experiments\media/logos/instagram.png,მოგონებები,0.16,0.54,0.16,0.0,1.5,right,513.31,513.31
2025-11-13T07:52:34.195,216,instagram,C:\Users\Nadira\Documents\Experiments\visual-evoked-potentials\psychopy_experiments\media/logos/instagram.png,ინფლუენსერი,0.16,0.54,0.16,0.0,1.5,left,580.09,580.09
2025-11-13T07:52:36.976,217,linkedin,C:\Users\Nadira\Documents\Experiments\visual-evoked-potentials\psychopy_experiments\media/logos/linkedin.png,ესთეტიური,0.16,0.54,0.16,0.0,1.5,,,
2025-11-13T07:52:39.090,218,instagram,C:\Users\Nadira\Documents\Experiments\visual-evoked-potentials\psychopy_experiments\media/logos/instagram.png,ნეთვორქინგი,0.16,0.54,0.16,0.0,1.5,left,845.14,845.14
2025-11-13T07:52:40.690,219,linkedin,C:\Users\Nadira\Documents\Experiments\visual-evoked-potentials\psychopy_experiments\media/logos/linkedin.png,სანთელი,0.16,0.54,0.16,0.0,1.5,left,314.59,314.59
2025-11-13T07:52:42.420,220,instagram,C:\Users\Nadira\Documents\Experiments\visual-evoked-potentials\psychopy_experiments\media/logos/instagram.png,ბურთი,0.16,0.54,0.16,0.0,1.5,left,464.15,464.15
2025-11-13T07:52:44.319,221,instagram,C:\Users\Nadira\Documents\Experiments\visual-evoked-potentials\psychopy_experiments\media/logos/instagram.png,მთები,0.16,0.54,0.16,0.0,1.5,left,631.62,631.62
2025-11-13T07:52:46.235,222,instagram,C:\Users\Nadira\Documents\Experiments\visual-evoked-potentials\psychopy_experiments\media/logos/instagram.png,დასაქმება,0.16,0.54,0.16,0.0,1.5,left,646.59,646.59
2025-11-13T07:52:47.883,223,linkedin,C:\Users\Nadira\Documents\Experiments\visual-evoked-potentials\psychopy_experiments\media/logos/linkedin.png,წიგნი,0.16,0.54,0.16,0.0,1.5,left,363.8,363.8
2025-11-13T07:52:49.516,224,instagram,C:\Users\Nadira\Documents\Experiments\visual-evoked-potentials\psychopy_experiments\media/logos/instagram.png,ინსპირაცია,0.16,0.54,0.16,0.0,1.5,left,363.17,363.17
2025-11-13T07:52:51.264,225,linkedin,C:\Users\Nadira\Documents\Experiments\visual-evoked-potentials\psychopy_experiments\media/logos/linkedin.png,სანთელი,0.16,0.54,0.16,0.0,1.5,left,463.92,463.92
2025-11-13T07:52:53.028,226,linkedin,C:\Users\Nadira\Documents\Experiments\visual-evoked-potentials\psychopy_experiments\media/logos/linkedin.png,ბალიში,0.16,0.54,0.16,0.0,1.5,left,481.42,481.42
2025-11-13T07:52:54.792,227,instagram,C:\Users\Nadira\Documents\Experiments\visual-evoked-potentials\psychopy_experiments\media/logos/instagram.png,პეპელა,0.16,0.54,0.16,0.0,1.5,left,497.61,497.61
2025-11-13T07:52:56.892,228,linkedin,C:\Users\Nadira\Documents\Experiments\visual-evoked-potentials\psychopy_experiments\media/logos/linkedin.png,გართობა,0.16,0.54,0.16,0.0,1.5,left,829.52,829.52
2025-11-13T07:52:58.807,229,instagram,C:\Users\Nadira\Documents\Experiments\visual-evoked-potentials\psychopy_experiments\media/logos/instagram.png,შესაძლებლობა,0.16,0.54,0.16,0.0,1.5,left,664.67,664.67
2025-11-13T07:53:00.589,230,linkedin,C:\Users\Nadira\Documents\Experiments\visual-evoked-potentials\psychopy_experiments\media/logos/linkedin.png,გაზიარება,0.16,0.54,0.16,0.0,1.5,right,513.43,513.43
2025-11-13T07:53:02.436,231,instagram,C:\Users\Nadira\Documents\Experiments\visual-evoked-potentials\psychopy_experiments\media/logos/instagram.png,წიგნი,0.16,0.54,0.16,0.0,1.5,left,578.44,578.44
2025-11-13T07:53:04.453,232,linkedin,C:\Users\Nadira\Documents\Experiments\visual-evoked-potentials\psychopy_experiments\media/logos/linkedin.png,სელფი,0.16,0.54,0.16,0.0,1.5,left,746.07,746.07
2025-11-13T07:53:06.335,233,instagram,C:\Users\Nadira\Documents\Experiments\visual-evoked-potentials\psychopy_experiments\media/logos/instagram.png,ოკეანე,0.16,0.54,0.16,0.0,1.5,left,613.89,613.89
2025-11-13T07:53:08.231,234,linkedin,C:\Users\Nadira\Documents\Experiments\visual-evoked-potentials\psychopy_experiments\media/logos/linkedin.png,ინსპირაცია,0.16,0.54,0.16,0.0,1.5,right,614.88,614.88
2025-11-13T07:53:10.096,235,instagram,C:\Users\Nadira\Documents\Experiments\visual-evoked-potentials\psychopy_experiments\media/logos/instagram.png,ლურჯი,0.16,0.54,0.16,0.0,1.5,left,597.57,597.57
2025-11-13T07:53:11.861,236,linkedin,C:\Users\Nadira\Documents\Experiments\visual-evoked-potentials\psychopy_experiments\media/logos/linkedin.png,მოგონებები,0.16,0.54,0.16,0.0,1.5,right,480.28,480.28
2025-11-13T07:53:13.593,237,linkedin,C:\Users\Nadira\Documents\Experiments\visual-evoked-potentials\psychopy_experiments\media/logos/linkedin.png,მთები,0.16,0.54,0.16,0.0,1.5,left,448.67,448.67
2025-11-13T07:53:15.409,238,linkedin,C:\Users\Nadira\Documents\Experiments\visual-evoked-potentials\psychopy_experiments\media/logos/linkedin.png,დასაქმება,0.16,0.54,0.16,0.0,1.5,right,530.39,530.39
2025-11-13T07:53:17.074,239,instagram,C:\Users\Nadira\Documents\Experiments\visual-evoked-potentials\psychopy_experiments\media/logos/instagram.png,სთორი,0.16,0.54,0.16,0.0,1.5,left,398.05,398.05
