timestamp_iso,trial_index,brand,brand_path,target,prime_time_s,isi_s,target_time_s,cooldown_s,resp_window_s,resp_key,rt_ms_from_target,rt_ms_from_window_open
2025-11-06T07:36:54.907,0,youtube,C:\Users\Nadira\Documents\Experiments\visual-evoked-potentials\psychopy_experiments\media/logos/youtube.png,კავშირი,0.16,0.7,0.16,0.0,1.0,right,972.36,972.36
2025-11-06T07:36:57.138,1,facebook,C:\Users\Nadira\Documents\Experiments\visual-evoked-potentials\psychopy_experiments\media/logos/facebook.png,ტყუილი,0.16,0.7,0.16,0.0,1.0,right,972.98,972.98
2025-11-06T07:36:59.353,2,facebook,C:\Users\Nadira\Documents\Experiments\visual-evoked-potentials\psychopy_experiments\media/logos/facebook.png,პოლიტიკა,0.16,0.7,0.16,0.0,1.0,right,756.86,756.86
2025-11-06T07:37:01.568,3,facebook,C:\Users\Nadira\Documents\Experiments\visual-evoked-potentials\psychopy_experiments\media/logos/facebook.png,ქრიეთორი,0.16,0.7,0.16,0.0,1.0,,,
2025-11-06T07:37:03.782,4,facebook,C:\Users\Nadira\Documents\Experiments\visual-evoked-potentials\psychopy_experiments\media/logos/facebook.png,ცისარტყელა,0.16,0.7,0.16,0.0,1.0,left,907.21,907.21
2025-11-06T07:37:05.998,5,facebook,C:\Users\Nadira\Documents\Experiments\visual-evoked-potentials\psychopy_experiments\media/logos/facebook.png,ჩელენჯი,0.16,0.7,0.16,0.0,1.0,,,
2025-11-06T07:37:08.196,6,youtube,C:\Users\Nadira\Documents\Experiments\visual-evoked-potentials\psychopy_experiments\media/logos/youtube.png,ვიდეო,0.16,0.7,0.16,0.0,1.0,right,792.81,792.81
2025-11-06T07:37:10.427,7,youtube,C:\Users\Nadira\Documents\Experiments\visual-evoked-potentials\psychopy_experiments\media/logos/youtube.png,ცისარტყელა,0.16,0.7,0.16,0.0,1.0,,,
2025-11-06T07:37:12.641,8,facebook,C:\Users\Nadira\Documents\Experiments\visual-evoked-potentials\psychopy_experiments\media/logos/facebook.png,მესიჯი,0.16,0.7,0.16,0.0,1.0,right,874.68,874.68
2025-11-06T07:37:14.857,9,youtube,C:\Users\Nadira\Documents\Experiments\visual-evoked-potentials\psychopy_experiments\media/logos/youtube.png,დრო,0.16,0.7,0.16,0.0,1.0,,,
2025-11-06T07:37:17.070,10,facebook,C:\Users\Nadira\Documents\Experiments\visual-evoked-potentials\psychopy_experiments\media/logos/facebook.png,აგური,0.16,0.7,0.16,0.0,1.0,left,875.17,875.17
2025-11-06T07:37:19.285,11,facebook,C:\Users\Nadira\Documents\Experiments\visual-evoked-potentials\psychopy_experiments\media/logos/facebook.png,კონტენტი,0.16,0.7,0.16,0.0,1.0,right,913.36,913.36
2025-11-06T07:37:21.500,12,youtube,C:\Users\Nadira\Documents\Experiments\visual-evoked-potentials\psychopy_experiments\media/logos/youtube.png,წიგნი,0.16,0.7,0.16,0.0,1.0,left,977.54,977.54
2025-11-06T07:37:23.715,13,youtube,C:\Users\Nadira\Documents\Experiments\visual-evoked-potentials\psychopy_experiments\media/logos/youtube.png,ჩელენჯი,0.16,0.7,0.16,0.0,1.0,right,762.61,762.61
2025-11-06T07:37:25.930,14,youtube,C:\Users\Nadira\Documents\Experiments\visual-evoked-potentials\psychopy_experiments\media/logos/youtube.png,ინგეიჯმენთი,0.16,0.7,0.16,0.0,1.0,right,912.7,912.7
2025-11-06T07:37:28.144,15,facebook,C:\Users\Nadira\Documents\Experiments\visual-evoked-potentials\psychopy_experiments\media/logos/facebook.png,საზოგადოება,0.16,0.7,0.16,0.0,1.0,right,844.12,844.12
2025-11-06T07:37:30.359,16,youtube,C:\Users\Nadira\Documents\Experiments\visual-evoked-potentials\psychopy_experiments\media/logos/youtube.png,კავშირი,0.16,0.7,0.16,0.0,1.0,right,896.76,896.76
2025-11-06T07:37:32.558,17,youtube,C:\Users\Nadira\Documents\Experiments\visual-evoked-potentials\psychopy_experiments\media/logos/youtube.png,სანთელი,0.16,0.7,0.16,0.0,1.0,,,
2025-11-06T07:37:34.757,18,facebook,C:\Users\Nadira\Documents\Experiments\visual-evoked-potentials\psychopy_experiments\media/logos/facebook.png,ცისარტყელა,0.16,0.7,0.16,0.0,1.0,left,779.16,779.16
2025-11-06T07:37:36.970,19,facebook,C:\Users\Nadira\Documents\Experiments\visual-evoked-potentials\psychopy_experiments\media/logos/facebook.png,ჯგუფი,0.16,0.7,0.16,0.0,1.0,right,909.21,909.21
2025-11-06T07:37:39.187,20,facebook,C:\Users\Nadira\Documents\Experiments\visual-evoked-potentials\psychopy_experiments\media/logos/facebook.png,საზოგადოება,0.16,0.7,0.16,0.0,1.0,right,862.22,862.22
2025-11-06T07:37:41.399,21,youtube,C:\Users\Nadira\Documents\Experiments\visual-evoked-potentials\psychopy_experiments\media/logos/youtube.png,რეაქცია,0.16,0.7,0.16,0.0,1.0,right,929.44,929.44
2025-11-06T07:37:43.614,22,youtube,C:\Users\Nadira\Documents\Experiments\visual-evoked-potentials\psychopy_experiments\media/logos/youtube.png,პეპელა,0.16,0.7,0.16,0.0,1.0,,,
2025-11-06T07:37:45.829,23,youtube,C:\Users\Nadira\Documents\Experiments\visual-evoked-potentials\psychopy_experiments\media/logos/youtube.png,წიგნი,0.16,0.7,0.16,0.0,1.0,left,979.52,979.52
2025-11-06T07:37:48.045,24,youtube,C:\Users\Nadira\Documents\Experiments\visual-evoked-potentials\psychopy_experiments\media/logos/youtube.png,ნოსტალგია,0.16,0.7,0.16,0.0,1.0,,,
2025-11-06T07:37:50.258,25,youtube,C:\Users\Nadira\Documents\Experiments\visual-evoked-potentials\psychopy_experiments\media/logos/youtube.png,პოსტი,0.16,0.7,0.16,0.0,1.0,left,944.91,944.91
2025-11-06T07:37:52.474,26,youtube,C:\Users\Nadira\Documents\Experiments\visual-evoked-potentials\psychopy_experiments\media/logos/youtube.png,ცისარტყელა,0.16,0.7,0.16,0.0,1.0,left,764.3,764.3
2025-11-06T07:37:54.672,27,youtube,C:\Users\Nadira\Documents\Experiments\visual-evoked-potentials\psychopy_experiments\media/logos/youtube.png,ვიოლინო,0.16,0.7,0.16,0.0,1.0,,,
2025-11-06T07:37:56.887,28,youtube,C:\Users\Nadira\Documents\Experiments\visual-evoked-potentials\psychopy_experiments\media/logos/youtube.png,რეალობა,0.16,0.7,0.16,0.0,1.0,,,
2025-11-06T07:37:59.085,29,youtube,C:\Users\Nadira\Documents\Experiments\visual-evoked-potentials\psychopy_experiments\media/logos/youtube.png,ბალიში,0.16,0.7,0.16,0.0,1.0,left,945.94,945.94
2025-11-06T07:38:01.284,30,youtube,C:\Users\Nadira\Documents\Experiments\visual-evoked-potentials\psychopy_experiments\media/logos/youtube.png,პეპელა,0.16,0.7,0.16,0.0,1.0,left,678.63,678.63
2025-11-06T07:38:03.514,31,facebook,C:\Users\Nadira\Documents\Experiments\visual-evoked-potentials\psychopy_experiments\media/logos/facebook.png,კომენტარები,0.16,0.7,0.16,0.0,1.0,,,
2025-11-06T07:38:05.729,32,youtube,C:\Users\Nadira\Documents\Experiments\visual-evoked-potentials\psychopy_experiments\media/logos/youtube.png,ტყუილი,0.16,0.7,0.16,0.0,1.0,,,
2025-11-06T07:38:07.943,33,youtube,C:\Users\Nadira\Documents\Experiments\visual-evoked-potentials\psychopy_experiments\media/logos/youtube.png,მეგობრები,0.16,0.7,0.16,0.0,1.0,,,
2025-11-06T07:38:10.143,34,facebook,C:\Users\Nadira\Documents\Experiments\visual-evoked-potentials\psychopy_experiments\media/logos/facebook.png,ტყუილი,0.16,0.7,0.16,0.0,1.0,,,
2025-11-06T07:38:12.357,35,youtube,C:\Users\Nadira\Documents\Experiments\visual-evoked-potentials\psychopy_experiments\media/logos/youtube.png,პროფილი,0.16,0.7,0.16,0.0,1.0,,,
2025-11-06T07:38:14.571,36,youtube,C:\Users\Nadira\Documents\Experiments\visual-evoked-potentials\psychopy_experiments\media/logos/youtube.png,გართობა,0.16,0.7,0.16,0.0,1.0,right,844.95,844.95
2025-11-06T07:38:16.787,37,facebook,C:\Users\Nadira\Documents\Experiments\visual-evoked-potentials\psychopy_experiments\media/logos/facebook.png,კომენტარები,0.16,0.7,0.16,0.0,1.0,right,729.83,729.83
2025-11-06T07:38:18.984,38,youtube,C:\Users\Nadira\Documents\Experiments\visual-evoked-potentials\psychopy_experiments\media/logos/youtube.png,ავთენტურობა,0.16,0.7,0.16,0.0,1.0,,,
2025-11-06T07:38:21.182,39,facebook,C:\Users\Nadira\Documents\Experiments\visual-evoked-potentials\psychopy_experiments\media/logos/facebook.png,ვიოლინო,0.16,0.7,0.16,0.0,1.0,,,
2025-11-06T07:38:23.396,40,youtube,C:\Users\Nadira\Documents\Experiments\visual-evoked-potentials\psychopy_experiments\media/logos/youtube.png,გართობა,0.16,0.7,0.16,0.0,1.0,,,
2025-11-06T07:38:25.612,41,facebook,C:\Users\Nadira\Documents\Experiments\visual-evoked-potentials\psychopy_experiments\media/logos/facebook.png,ინგეიჯმენთი,0.16,0.7,0.16,0.0,1.0,,,
2025-11-06T07:38:27.809,42,facebook,C:\Users\Nadira\Documents\Experiments\visual-evoked-potentials\psychopy_experiments\media/logos/facebook.png,ოკეანე,0.16,0.7,0.16,0.0,1.0,left,811.57,811.57
2025-11-06T07:38:30.023,43,facebook,C:\Users\Nadira\Documents\Experiments\visual-evoked-potentials\psychopy_experiments\media/logos/facebook.png,პოლიტიკა,0.16,0.7,0.16,0.0,1.0,right,898.2,898.2
2025-11-06T07:38:32.239,44,facebook,C:\Users\Nadira\Documents\Experiments\visual-evoked-potentials\psychopy_experiments\media/logos/facebook.png,ავთენტურობა,0.16,0.7,0.16,0.0,1.0,,,
2025-11-06T07:38:34.454,45,facebook,C:\Users\Nadira\Documents\Experiments\visual-evoked-potentials\psychopy_experiments\media/logos/facebook.png,მეგობრები,0.16,0.7,0.16,0.0,1.0,,,
2025-11-06T07:38:36.667,46,youtube,C:\Users\Nadira\Documents\Experiments\visual-evoked-potentials\psychopy_experiments\media/logos/youtube.png,მეგობრები,0.16,0.7,0.16,0.0,1.0,left,981.24,981.24
2025-11-06T07:38:38.866,47,facebook,C:\Users\Nadira\Documents\Experiments\visual-evoked-potentials\psychopy_experiments\media/logos/facebook.png,რეალობა,0.16,0.7,0.16,0.0,1.0,,,
2025-11-06T07:38:41.080,48,youtube,C:\Users\Nadira\Documents\Experiments\visual-evoked-potentials\psychopy_experiments\media/logos/youtube.png,კომენტარები,0.16,0.7,0.16,0.0,1.0,,,
2025-11-06T07:38:43.280,49,youtube,C:\Users\Nadira\Documents\Experiments\visual-evoked-potentials\psychopy_experiments\media/logos/youtube.png,ოკეანე,0.16,0.7,0.16,0.0,1.0,left,713.81,713.81
2025-11-06T07:38:45.492,50,youtube,C:\Users\Nadira\Documents\Experiments\visual-evoked-potentials\psychopy_experiments\media/logos/youtube.png,ვიდეო,0.16,0.7,0.16,0.0,1.0,right,696.27,696.27
2025-11-06T07:38:47.708,51,youtube,C:\Users\Nadira\Documents\Experiments\visual-evoked-potentials\psychopy_experiments\media/logos/youtube.png,პროფილი,0.16,0.7,0.16,0.0,1.0,left,929.91,929.91
2025-11-06T07:38:49.908,52,youtube,C:\Users\Nadira\Documents\Experiments\visual-evoked-potentials\psychopy_experiments\media/logos/youtube.png,ვიოლინო,0.16,0.7,0.16,0.0,1.0,left,779.35,779.35
2025-11-06T07:38:52.139,53,facebook,C:\Users\Nadira\Documents\Experiments\visual-evoked-potentials\psychopy_experiments\media/logos/facebook.png,ბალიში,0.16,0.7,0.16,0.0,1.0,left,830.77,830.77
2025-11-06T07:38:54.354,54,facebook,C:\Users\Nadira\Documents\Experiments\visual-evoked-potentials\psychopy_experiments\media/logos/facebook.png,კომენტარები,0.16,0.7,0.16,0.0,1.0,right,795.4,795.4
2025-11-06T07:38:56.569,55,youtube,C:\Users\Nadira\Documents\Experiments\visual-evoked-potentials\psychopy_experiments\media/logos/youtube.png,ტყუილი,0.16,0.7,0.16,0.0,1.0,,,
2025-11-06T07:38:58.798,56,facebook,C:\Users\Nadira\Documents\Experiments\visual-evoked-potentials\psychopy_experiments\media/logos/facebook.png,რეალობა,0.16,0.7,0.16,0.0,1.0,,,
2025-11-06T07:39:01.013,57,youtube,C:\Users\Nadira\Documents\Experiments\visual-evoked-potentials\psychopy_experiments\media/logos/youtube.png,სწავლა,0.16,0.7,0.16,0.0,1.0,,,
2025-11-06T07:39:03.212,58,youtube,C:\Users\Nadira\Documents\Experiments\visual-evoked-potentials\psychopy_experiments\media/logos/youtube.png,კონტენტი,0.16,0.7,0.16,0.0,1.0,right,764.34,764.34
2025-11-06T07:39:05.427,59,facebook,C:\Users\Nadira\Documents\Experiments\visual-evoked-potentials\psychopy_experiments\media/logos/facebook.png,დრო,0.16,0.7,0.16,0.0,1.0,left,978.47,978.47
2025-11-06T07:39:07.641,60,facebook,C:\Users\Nadira\Documents\Experiments\visual-evoked-potentials\psychopy_experiments\media/logos/facebook.png,კონტენტი,0.16,0.7,0.16,0.0,1.0,right,878.62,878.62
2025-11-06T07:39:09.855,61,facebook,C:\Users\Nadira\Documents\Experiments\visual-evoked-potentials\psychopy_experiments\media/logos/facebook.png,კავშირი,0.16,0.7,0.16,0.0,1.0,right,815.8,815.8
2025-11-06T07:39:12.055,62,youtube,C:\Users\Nadira\Documents\Experiments\visual-evoked-potentials\psychopy_experiments\media/logos/youtube.png,პოლიტიკა,0.16,0.7,0.16,0.0,1.0,,,
2025-11-06T07:39:14.269,63,youtube,C:\Users\Nadira\Documents\Experiments\visual-evoked-potentials\psychopy_experiments\media/logos/youtube.png,კავშირი,0.16,0.7,0.16,0.0,1.0,,,
2025-11-06T07:39:16.483,64,facebook,C:\Users\Nadira\Documents\Experiments\visual-evoked-potentials\psychopy_experiments\media/logos/facebook.png,სწავლა,0.16,0.7,0.16,0.0,1.0,right,813.34,813.34
2025-11-06T07:39:18.698,65,youtube,C:\Users\Nadira\Documents\Experiments\visual-evoked-potentials\psychopy_experiments\media/logos/youtube.png,მთები,0.16,0.7,0.16,0.0,1.0,left,745.75,745.75
2025-11-06T07:39:20.913,66,facebook,C:\Users\Nadira\Documents\Experiments\visual-evoked-potentials\psychopy_experiments\media/logos/facebook.png,ვიოლინო,0.16,0.7,0.16,0.0,1.0,left,765.13,765.13
2025-11-06T07:39:23.127,67,facebook,C:\Users\Nadira\Documents\Experiments\visual-evoked-potentials\psychopy_experiments\media/logos/facebook.png,თვალთვალი,0.16,0.7,0.16,0.0,1.0,,,
2025-11-06T07:39:25.342,68,facebook,C:\Users\Nadira\Documents\Experiments\visual-evoked-potentials\psychopy_experiments\media/logos/facebook.png,წიგნი,0.16,0.7,0.16,0.0,1.0,,,
2025-11-06T07:39:27.557,69,facebook,C:\Users\Nadira\Documents\Experiments\visual-evoked-potentials\psychopy_experiments\media/logos/facebook.png,პოლიტიკა,0.16,0.7,0.16,0.0,1.0,right,847.71,847.71
2025-11-06T07:39:29.756,70,youtube,C:\Users\Nadira\Documents\Experiments\visual-evoked-potentials\psychopy_experiments\media/logos/youtube.png,მესიჯი,0.16,0.7,0.16,0.0,1.0,,,
2025-11-06T07:39:31.986,71,facebook,C:\Users\Nadira\Documents\Experiments\visual-evoked-potentials\psychopy_experiments\media/logos/facebook.png,ჩელენჯი,0.16,0.7,0.16,0.0,1.0,,,
2025-11-06T07:39:34.186,72,facebook,C:\Users\Nadira\Documents\Experiments\visual-evoked-potentials\psychopy_experiments\media/logos/facebook.png,აგური,0.16,0.7,0.16,0.0,1.0,left,816.2,816.2
2025-11-06T07:39:36.415,73,youtube,C:\Users\Nadira\Documents\Experiments\visual-evoked-potentials\psychopy_experiments\media/logos/youtube.png,ავთენტურობა,0.16,0.7,0.16,0.0,1.0,,,
2025-11-06T07:39:38.631,74,youtube,C:\Users\Nadira\Documents\Experiments\visual-evoked-potentials\psychopy_experiments\media/logos/youtube.png,აგური,0.16,0.7,0.16,0.0,1.0,left,615.99,615.99
2025-11-06T07:39:40.845,75,youtube,C:\Users\Nadira\Documents\Experiments\visual-evoked-potentials\psychopy_experiments\media/logos/youtube.png,ამბები,0.16,0.7,0.16,0.0,1.0,right,914.15,914.15
2025-11-06T07:39:43.029,76,youtube,C:\Users\Nadira\Documents\Experiments\visual-evoked-potentials\psychopy_experiments\media/logos/youtube.png,რეალობა,0.16,0.7,0.16,0.0,1.0,,,
2025-11-06T07:39:45.260,77,facebook,C:\Users\Nadira\Documents\Experiments\visual-evoked-potentials\psychopy_experiments\media/logos/facebook.png,პროფილი,0.16,0.7,0.16,0.0,1.0,right,796.54,796.54
2025-11-06T07:39:47.456,78,youtube,C:\Users\Nadira\Documents\Experiments\visual-evoked-potentials\psychopy_experiments\media/logos/youtube.png,პოსტი,0.16,0.7,0.16,0.0,1.0,left,945.51,945.51
2025-11-06T07:39:49.671,79,facebook,C:\Users\Nadira\Documents\Experiments\visual-evoked-potentials\psychopy_experiments\media/logos/facebook.png,დრო,0.16,0.7,0.16,0.0,1.0,,,
2025-11-06T07:39:51.886,80,youtube,C:\Users\Nadira\Documents\Experiments\visual-evoked-potentials\psychopy_experiments\media/logos/youtube.png,კონტენტი,0.16,0.7,0.16,0.0,1.0,right,830.79,830.79
2025-11-06T07:39:54.101,81,facebook,C:\Users\Nadira\Documents\Experiments\visual-evoked-potentials\psychopy_experiments\media/logos/facebook.png,ცისარტყელა,0.16,0.7,0.16,0.0,1.0,left,979.84,979.84
2025-11-06T07:39:56.299,82,youtube,C:\Users\Nadira\Documents\Experiments\visual-evoked-potentials\psychopy_experiments\media/logos/youtube.png,სწავლა,0.16,0.7,0.16,0.0,1.0,,,
2025-11-06T07:39:58.513,83,facebook,C:\Users\Nadira\Documents\Experiments\visual-evoked-potentials\psychopy_experiments\media/logos/facebook.png,დრო,0.16,0.7,0.16,0.0,1.0,left,864.78,864.78
2025-11-06T07:40:00.729,84,youtube,C:\Users\Nadira\Documents\Experiments\visual-evoked-potentials\psychopy_experiments\media/logos/youtube.png,ფული,0.16,0.7,0.16,0.0,1.0,,,
2025-11-06T07:40:02.943,85,facebook,C:\Users\Nadira\Documents\Experiments\visual-evoked-potentials\psychopy_experiments\media/logos/facebook.png,რეალობა,0.16,0.7,0.16,0.0,1.0,left,996.36,996.36
2025-11-06T07:40:05.158,86,youtube,C:\Users\Nadira\Documents\Experiments\visual-evoked-potentials\psychopy_experiments\media/logos/youtube.png,ბალიში,0.16,0.7,0.16,0.0,1.0,left,880.31,880.31
2025-11-06T07:40:07.372,87,youtube,C:\Users\Nadira\Documents\Experiments\visual-evoked-potentials\psychopy_experiments\media/logos/youtube.png,ჩელენჯი,0.16,0.7,0.16,0.0,1.0,,,
2025-11-06T07:40:09.588,88,youtube,C:\Users\Nadira\Documents\Experiments\visual-evoked-potentials\psychopy_experiments\media/logos/youtube.png,თვალთვალი,0.16,0.7,0.16,0.0,1.0,,,
2025-11-06T07:40:11.802,89,youtube,C:\Users\Nadira\Documents\Experiments\visual-evoked-potentials\psychopy_experiments\media/logos/youtube.png,ცისარტყელა,0.16,0.7,0.16,0.0,1.0,left,712.62,712.62
2025-11-06T07:40:14.033,90,youtube,C:\Users\Nadira\Documents\Experiments\visual-evoked-potentials\psychopy_experiments\media/logos/youtube.png,ტუტორიალი,0.16,0.7,0.16,0.0,1.0,right,815.39,815.39
2025-11-06T07:40:16.248,91,youtube,C:\Users\Nadira\Documents\Experiments\visual-evoked-potentials\psychopy_experiments\media/logos/youtube.png,კომენტარები,0.16,0.7,0.16,0.0,1.0,right,829.93,829.93
2025-11-06T07:40:18.479,92,youtube,C:\Users\Nadira\Documents\Experiments\visual-evoked-potentials\psychopy_experiments\media/logos/youtube.png,ქრიეთორი,0.16,0.7,0.16,0.0,1.0,right,896.87,896.87
2025-11-06T07:40:20.712,93,facebook,C:\Users\Nadira\Documents\Experiments\visual-evoked-potentials\psychopy_experiments\media/logos/facebook.png,ტუტორიალი,0.16,0.7,0.16,0.0,1.0,,,
2025-11-06T07:40:22.926,94,facebook,C:\Users\Nadira\Documents\Experiments\visual-evoked-potentials\psychopy_experiments\media/logos/facebook.png,ბურთი,0.16,0.7,0.16,0.0,1.0,left,797.38,797.38
2025-11-06T07:40:25.140,95,facebook,C:\Users\Nadira\Documents\Experiments\visual-evoked-potentials\psychopy_experiments\media/logos/facebook.png,ჩენელი,0.16,0.7,0.16,0.0,1.0,,,
2025-11-06T07:40:27.338,96,youtube,C:\Users\Nadira\Documents\Experiments\visual-evoked-potentials\psychopy_experiments\media/logos/youtube.png,ალგორითმი,0.16,0.7,0.16,0.0,1.0,right,978.64,978.64
2025-11-06T07:40:29.552,97,facebook,C:\Users\Nadira\Documents\Experiments\visual-evoked-potentials\psychopy_experiments\media/logos/facebook.png,კავშირი,0.16,0.7,0.16,0.0,1.0,right,646.25,646.25
2025-11-06T07:40:31.768,98,facebook,C:\Users\Nadira\Documents\Experiments\visual-evoked-potentials\psychopy_experiments\media/logos/facebook.png,ალგორითმი,0.16,0.7,0.16,0.0,1.0,right,730.59,730.59
2025-11-06T07:40:33.982,99,facebook,C:\Users\Nadira\Documents\Experiments\visual-evoked-potentials\psychopy_experiments\media/logos/facebook.png,ჩენელი,0.16,0.7,0.16,0.0,1.0,right,914.48,914.48
2025-11-06T07:40:36.198,100,facebook,C:\Users\Nadira\Documents\Experiments\visual-evoked-potentials\psychopy_experiments\media/logos/facebook.png,მეგობრები,0.16,0.7,0.16,0.0,1.0,,,
2025-11-06T07:40:38.379,101,youtube,C:\Users\Nadira\Documents\Experiments\visual-evoked-potentials\psychopy_experiments\media/logos/youtube.png,ბალიში,0.16,0.7,0.16,0.0,1.0,left,627.94,627.94
2025-11-06T07:40:40.595,102,facebook,C:\Users\Nadira\Documents\Experiments\visual-evoked-potentials\psychopy_experiments\media/logos/facebook.png,სტრიმი,0.16,0.7,0.16,0.0,1.0,,,
2025-11-06T07:40:42.809,103,youtube,C:\Users\Nadira\Documents\Experiments\visual-evoked-potentials\psychopy_experiments\media/logos/youtube.png,ჯგუფი,0.16,0.7,0.16,0.0,1.0,,,
2025-11-06T07:40:45.023,104,facebook,C:\Users\Nadira\Documents\Experiments\visual-evoked-potentials\psychopy_experiments\media/logos/facebook.png,მესიჯი,0.16,0.7,0.16,0.0,1.0,right,860.86,860.86
2025-11-06T07:40:47.239,105,youtube,C:\Users\Nadira\Documents\Experiments\visual-evoked-potentials\psychopy_experiments\media/logos/youtube.png,ჯგუფი,0.16,0.7,0.16,0.0,1.0,,,
2025-11-06T07:40:49.453,106,facebook,C:\Users\Nadira\Documents\Experiments\visual-evoked-potentials\psychopy_experiments\media/logos/facebook.png,პეპელა,0.16,0.7,0.16,0.0,1.0,left,713.84,713.84
2025-11-06T07:40:51.666,107,facebook,C:\Users\Nadira\Documents\Experiments\visual-evoked-potentials\psychopy_experiments\media/logos/facebook.png,რეაქცია,0.16,0.7,0.16,0.0,1.0,,,
2025-11-06T07:40:53.866,108,facebook,C:\Users\Nadira\Documents\Experiments\visual-evoked-potentials\psychopy_experiments\media/logos/facebook.png,ინგეიჯმენთი,0.16,0.7,0.16,0.0,1.0,right,797.02,797.02
2025-11-06T07:40:56.064,109,facebook,C:\Users\Nadira\Documents\Experiments\visual-evoked-potentials\psychopy_experiments\media/logos/facebook.png,ტყუილი,0.16,0.7,0.16,0.0,1.0,,,
2025-11-06T07:40:58.294,110,facebook,C:\Users\Nadira\Documents\Experiments\visual-evoked-potentials\psychopy_experiments\media/logos/facebook.png,ქრიეთორი,0.16,0.7,0.16,0.0,1.0,,,
2025-11-06T07:41:00.494,111,facebook,C:\Users\Nadira\Documents\Experiments\visual-evoked-potentials\psychopy_experiments\media/logos/facebook.png,ავთენტურობა,0.16,0.7,0.16,0.0,1.0,,,
2025-11-06T07:41:02.709,112,youtube,C:\Users\Nadira\Documents\Experiments\visual-evoked-potentials\psychopy_experiments\media/logos/youtube.png,დრო,0.16,0.7,0.16,0.0,1.0,,,
2025-11-06T07:41:04.922,113,facebook,C:\Users\Nadira\Documents\Experiments\visual-evoked-potentials\psychopy_experiments\media/logos/facebook.png,პროფილი,0.16,0.7,0.16,0.0,1.0,right,644.8,644.8
2025-11-06T07:41:07.121,114,youtube,C:\Users\Nadira\Documents\Experiments\visual-evoked-potentials\psychopy_experiments\media/logos/youtube.png,მეგობრები,0.16,0.7,0.16,0.0,1.0,right,963.43,963.43
2025-11-06T07:41:09.335,115,youtube,C:\Users\Nadira\Documents\Experiments\visual-evoked-potentials\psychopy_experiments\media/logos/youtube.png,ბალიში,0.16,0.7,0.16,0.0,1.0,,,
2025-11-06T07:41:11.551,116,youtube,C:\Users\Nadira\Documents\Experiments\visual-evoked-potentials\psychopy_experiments\media/logos/youtube.png,კონტენტი,0.16,0.7,0.16,0.0,1.0,right,764.37,764.37
2025-11-06T07:41:13.765,117,youtube,C:\Users\Nadira\Documents\Experiments\visual-evoked-potentials\psychopy_experiments\media/logos/youtube.png,გართობა,0.16,0.7,0.16,0.0,1.0,,,
2025-11-06T07:41:15.979,118,youtube,C:\Users\Nadira\Documents\Experiments\visual-evoked-potentials\psychopy_experiments\media/logos/youtube.png,სწავლა,0.16,0.7,0.16,0.0,1.0,,,
2025-11-06T07:41:18.210,119,facebook,C:\Users\Nadira\Documents\Experiments\visual-evoked-potentials\psychopy_experiments\media/logos/facebook.png,ბალიში,0.16,0.7,0.16,0.0,1.0,left,630.18,630.18
2025-11-06T07:41:20.425,120,youtube,C:\Users\Nadira\Documents\Experiments\visual-evoked-potentials\psychopy_experiments\media/logos/youtube.png,ინგეიჯმენთი,0.16,0.7,0.16,0.0,1.0,right,813.72,813.72
2025-11-06T07:41:22.642,121,youtube,C:\Users\Nadira\Documents\Experiments\visual-evoked-potentials\psychopy_experiments\media/logos/youtube.png,საზოგადოება,0.16,0.7,0.16,0.0,1.0,,,
2025-11-06T07:41:24.871,122,facebook,C:\Users\Nadira\Documents\Experiments\visual-evoked-potentials\psychopy_experiments\media/logos/facebook.png,პეპელა,0.16,0.7,0.16,0.0,1.0,left,598.44,598.44
2025-11-06T07:41:27.086,123,facebook,C:\Users\Nadira\Documents\Experiments\visual-evoked-potentials\psychopy_experiments\media/logos/facebook.png,ალგორითმი,0.16,0.7,0.16,0.0,1.0,,,
2025-11-06T07:41:29.300,124,youtube,C:\Users\Nadira\Documents\Experiments\visual-evoked-potentials\psychopy_experiments\media/logos/youtube.png,ღონისძიება,0.16,0.7,0.16,0.0,1.0,,,
2025-11-06T07:41:31.517,125,youtube,C:\Users\Nadira\Documents\Experiments\visual-evoked-potentials\psychopy_experiments\media/logos/youtube.png,სწავლა,0.16,0.7,0.16,0.0,1.0,right,613.51,613.51
2025-11-06T07:41:33.731,126,youtube,C:\Users\Nadira\Documents\Experiments\visual-evoked-potentials\psychopy_experiments\media/logos/youtube.png,სანთელი,0.16,0.7,0.16,0.0,1.0,left,662.79,662.79
2025-11-06T07:41:35.929,127,facebook,C:\Users\Nadira\Documents\Experiments\visual-evoked-potentials\psychopy_experiments\media/logos/facebook.png,სტრიმი,0.16,0.7,0.16,0.0,1.0,,,
2025-11-06T07:41:38.128,128,facebook,C:\Users\Nadira\Documents\Experiments\visual-evoked-potentials\psychopy_experiments\media/logos/facebook.png,აგური,0.16,0.7,0.16,0.0,1.0,left,646.92,646.92
2025-11-06T07:41:40.358,129,youtube,C:\Users\Nadira\Documents\Experiments\visual-evoked-potentials\psychopy_experiments\media/logos/youtube.png,თვალთვალი,0.16,0.7,0.16,0.0,1.0,,,
2025-11-06T07:41:42.573,130,facebook,C:\Users\Nadira\Documents\Experiments\visual-evoked-potentials\psychopy_experiments\media/logos/facebook.png,მთები,0.16,0.7,0.16,0.0,1.0,left,745.53,745.53
2025-11-06T07:41:44.787,131,facebook,C:\Users\Nadira\Documents\Experiments\visual-evoked-potentials\psychopy_experiments\media/logos/facebook.png,ამბები,0.16,0.7,0.16,0.0,1.0,right,828.61,828.61
2025-11-06T07:41:47.005,132,facebook,C:\Users\Nadira\Documents\Experiments\visual-evoked-potentials\psychopy_experiments\media/logos/facebook.png,ბალიში,0.16,0.7,0.16,0.0,1.0,,,
2025-11-06T07:41:49.217,133,youtube,C:\Users\Nadira\Documents\Experiments\visual-evoked-potentials\psychopy_experiments\media/logos/youtube.png,საზოგადოება,0.16,0.7,0.16,0.0,1.0,,,
2025-11-06T07:41:51.399,134,youtube,C:\Users\Nadira\Documents\Experiments\visual-evoked-potentials\psychopy_experiments\media/logos/youtube.png,მესიჯი,0.16,0.7,0.16,0.0,1.0,right,681.36,681.36
2025-11-06T07:41:53.613,135,youtube,C:\Users\Nadira\Documents\Experiments\visual-evoked-potentials\psychopy_experiments\media/logos/youtube.png,ბალიში,0.16,0.7,0.16,0.0,1.0,left,614.42,614.42
2025-11-06T07:41:55.829,136,facebook,C:\Users\Nadira\Documents\Experiments\visual-evoked-potentials\psychopy_experiments\media/logos/facebook.png,რეაქცია,0.16,0.7,0.16,0.0,1.0,right,963.9,963.9
2025-11-06T07:41:58.043,137,youtube,C:\Users\Nadira\Documents\Experiments\visual-evoked-potentials\psychopy_experiments\media/logos/youtube.png,სწავლა,0.16,0.7,0.16,0.0,1.0,right,681.67,681.67
2025-11-06T07:42:00.242,138,youtube,C:\Users\Nadira\Documents\Experiments\visual-evoked-potentials\psychopy_experiments\media/logos/youtube.png,პეპელა,0.16,0.7,0.16,0.0,1.0,left,697.97,697.97
2025-11-06T07:42:02.457,139,youtube,C:\Users\Nadira\Documents\Experiments\visual-evoked-potentials\psychopy_experiments\media/logos/youtube.png,პოსტი,0.16,0.7,0.16,0.0,1.0,,,
2025-11-06T07:42:04.654,140,youtube,C:\Users\Nadira\Documents\Experiments\visual-evoked-potentials\psychopy_experiments\media/logos/youtube.png,რეალობა,0.16,0.7,0.16,0.0,1.0,,,
2025-11-06T07:42:06.885,141,facebook,C:\Users\Nadira\Documents\Experiments\visual-evoked-potentials\psychopy_experiments\media/logos/facebook.png,ღონისძიება,0.16,0.7,0.16,0.0,1.0,right,826.88,826.88
2025-11-06T07:42:09.099,142,facebook,C:\Users\Nadira\Documents\Experiments\visual-evoked-potentials\psychopy_experiments\media/logos/facebook.png,ნოსტალგია,0.16,0.7,0.16,0.0,1.0,,,
2025-11-06T07:42:11.316,143,youtube,C:\Users\Nadira\Documents\Experiments\visual-evoked-potentials\psychopy_experiments\media/logos/youtube.png,ჯგუფი,0.16,0.7,0.16,0.0,1.0,,,
2025-11-06T07:42:13.513,144,facebook,C:\Users\Nadira\Documents\Experiments\visual-evoked-potentials\psychopy_experiments\media/logos/facebook.png,მთები,0.16,0.7,0.16,0.0,1.0,left,663.58,663.58
2025-11-06T07:42:15.727,145,facebook,C:\Users\Nadira\Documents\Experiments\visual-evoked-potentials\psychopy_experiments\media/logos/facebook.png,აგური,0.16,0.7,0.16,0.0,1.0,left,829.31,829.31
2025-11-06T07:42:17.941,146,facebook,C:\Users\Nadira\Documents\Experiments\visual-evoked-potentials\psychopy_experiments\media/logos/facebook.png,ფული,0.16,0.7,0.16,0.0,1.0,,,
2025-11-06T07:42:20.157,147,facebook,C:\Users\Nadira\Documents\Experiments\visual-evoked-potentials\psychopy_experiments\media/logos/facebook.png,სანთელი,0.16,0.7,0.16,0.0,1.0,left,628.86,628.86
2025-11-06T07:42:22.371,148,facebook,C:\Users\Nadira\Documents\Experiments\visual-evoked-potentials\psychopy_experiments\media/logos/facebook.png,მთები,0.16,0.7,0.16,0.0,1.0,left,630.05,630.05
2025-11-06T07:42:24.587,149,facebook,C:\Users\Nadira\Documents\Experiments\visual-evoked-potentials\psychopy_experiments\media/logos/facebook.png,საზოგადოება,0.16,0.7,0.16,0.0,1.0,right,680.18,680.18
2025-11-06T07:42:26.817,150,youtube,C:\Users\Nadira\Documents\Experiments\visual-evoked-potentials\psychopy_experiments\media/logos/youtube.png,კომენტარები,0.16,0.7,0.16,0.0,1.0,right,895.49,895.49
2025-11-06T07:42:29.033,151,facebook,C:\Users\Nadira\Documents\Experiments\visual-evoked-potentials\psychopy_experiments\media/logos/facebook.png,სწავლა,0.16,0.7,0.16,0.0,1.0,right,763.9,763.9
2025-11-06T07:42:31.263,152,facebook,C:\Users\Nadira\Documents\Experiments\visual-evoked-potentials\psychopy_experiments\media/logos/facebook.png,რეალობა,0.16,0.7,0.16,0.0,1.0,,,
2025-11-06T07:42:33.479,153,youtube,C:\Users\Nadira\Documents\Experiments\visual-evoked-potentials\psychopy_experiments\media/logos/youtube.png,პროფილი,0.16,0.7,0.16,0.0,1.0,,,
2025-11-06T07:42:35.693,154,facebook,C:\Users\Nadira\Documents\Experiments\visual-evoked-potentials\psychopy_experiments\media/logos/facebook.png,ნოსტალგია,0.16,0.7,0.16,0.0,1.0,,,
2025-11-06T07:42:37.909,155,facebook,C:\Users\Nadira\Documents\Experiments\visual-evoked-potentials\psychopy_experiments\media/logos/facebook.png,ტუტორიალი,0.16,0.7,0.16,0.0,1.0,,,
2025-11-06T07:42:40.123,156,facebook,C:\Users\Nadira\Documents\Experiments\visual-evoked-potentials\psychopy_experiments\media/logos/facebook.png,ჯგუფი,0.16,0.7,0.16,0.0,1.0,right,664.48,664.48
2025-11-06T07:42:42.336,157,facebook,C:\Users\Nadira\Documents\Experiments\visual-evoked-potentials\psychopy_experiments\media/logos/facebook.png,ნოსტალგია,0.16,0.7,0.16,0.0,1.0,left,929.22,929.22
2025-11-06T07:42:44.552,158,facebook,C:\Users\Nadira\Documents\Experiments\visual-evoked-potentials\psychopy_experiments\media/logos/facebook.png,ქრიეთორი,0.16,0.7,0.16,0.0,1.0,right,863.89,863.89
2025-11-06T07:42:46.766,159,facebook,C:\Users\Nadira\Documents\Experiments\visual-evoked-potentials\psychopy_experiments\media/logos/facebook.png,სწავლა,0.16,0.7,0.16,0.0,1.0,,,
2025-11-06T07:42:48.967,160,youtube,C:\Users\Nadira\Documents\Experiments\visual-evoked-potentials\psychopy_experiments\media/logos/youtube.png,კავშირი,0.16,0.7,0.16,0.0,1.0,right,780.39,780.39
2025-11-06T07:42:51.180,161,facebook,C:\Users\Nadira\Documents\Experiments\visual-evoked-potentials\psychopy_experiments\media/logos/facebook.png,ბალიში,0.16,0.7,0.16,0.0,1.0,left,661.99,661.99
2025-11-06T07:42:53.379,162,youtube,C:\Users\Nadira\Documents\Experiments\visual-evoked-potentials\psychopy_experiments\media/logos/youtube.png,ვიდეო,0.16,0.7,0.16,0.0,1.0,,,
2025-11-06T07:42:55.560,163,youtube,C:\Users\Nadira\Documents\Experiments\visual-evoked-potentials\psychopy_experiments\media/logos/youtube.png,სანთელი,0.16,0.7,0.16,0.0,1.0,left,780.06,780.06
2025-11-06T07:42:57.774,164,facebook,C:\Users\Nadira\Documents\Experiments\visual-evoked-potentials\psychopy_experiments\media/logos/facebook.png,მესიჯი,0.16,0.7,0.16,0.0,1.0,right,963.3,963.3
2025-11-06T07:42:59.989,165,facebook,C:\Users\Nadira\Documents\Experiments\visual-evoked-potentials\psychopy_experiments\media/logos/facebook.png,ამბები,0.16,0.7,0.16,0.0,1.0,left,815.0,815.0
2025-11-06T07:43:02.187,166,facebook,C:\Users\Nadira\Documents\Experiments\visual-evoked-potentials\psychopy_experiments\media/logos/facebook.png,ბურთი,0.16,0.7,0.16,0.0,1.0,,,
2025-11-06T07:43:04.419,167,youtube,C:\Users\Nadira\Documents\Experiments\visual-evoked-potentials\psychopy_experiments\media/logos/youtube.png,ჩენელი,0.16,0.7,0.16,0.0,1.0,right,681.15,681.15
2025-11-06T07:43:06.634,168,youtube,C:\Users\Nadira\Documents\Experiments\visual-evoked-potentials\psychopy_experiments\media/logos/youtube.png,რეალობა,0.16,0.7,0.16,0.0,1.0,,,
2025-11-06T07:43:08.832,169,youtube,C:\Users\Nadira\Documents\Experiments\visual-evoked-potentials\psychopy_experiments\media/logos/youtube.png,რეალობა,0.16,0.7,0.16,0.0,1.0,,,
2025-11-06T07:43:11.046,170,youtube,C:\Users\Nadira\Documents\Experiments\visual-evoked-potentials\psychopy_experiments\media/logos/youtube.png,გართობა,0.16,0.7,0.16,0.0,1.0,right,630.31,630.31
2025-11-06T07:43:13.260,171,facebook,C:\Users\Nadira\Documents\Experiments\visual-evoked-potentials\psychopy_experiments\media/logos/facebook.png,თვალთვალი,0.16,0.7,0.16,0.0,1.0,,,
2025-11-06T07:43:15.477,172,youtube,C:\Users\Nadira\Documents\Experiments\visual-evoked-potentials\psychopy_experiments\media/logos/youtube.png,ოკეანე,0.16,0.7,0.16,0.0,1.0,left,763.35,763.35
2025-11-06T07:43:17.692,173,youtube,C:\Users\Nadira\Documents\Experiments\visual-evoked-potentials\psychopy_experiments\media/logos/youtube.png,გართობა,0.16,0.7,0.16,0.0,1.0,right,845.76,845.76
2025-11-06T07:43:19.905,174,youtube,C:\Users\Nadira\Documents\Experiments\visual-evoked-potentials\psychopy_experiments\media/logos/youtube.png,ტყუილი,0.16,0.7,0.16,0.0,1.0,left,995.24,995.24
2025-11-06T07:43:22.120,175,facebook,C:\Users\Nadira\Documents\Experiments\visual-evoked-potentials\psychopy_experiments\media/logos/facebook.png,ფული,0.16,0.7,0.16,0.0,1.0,,,
2025-11-06T07:43:24.334,176,youtube,C:\Users\Nadira\Documents\Experiments\visual-evoked-potentials\psychopy_experiments\media/logos/youtube.png,ბურთი,0.16,0.7,0.16,0.0,1.0,left,912.29,912.29
2025-11-06T07:43:26.549,177,youtube,C:\Users\Nadira\Documents\Experiments\visual-evoked-potentials\psychopy_experiments\media/logos/youtube.png,ჩენელი,0.16,0.7,0.16,0.0,1.0,right,962.83,962.83
2025-11-06T07:43:28.764,178,youtube,C:\Users\Nadira\Documents\Experiments\visual-evoked-potentials\psychopy_experiments\media/logos/youtube.png,წიგნი,0.16,0.7,0.16,0.0,1.0,left,862.3,862.3
2025-11-06T07:43:30.980,179,youtube,C:\Users\Nadira\Documents\Experiments\visual-evoked-potentials\psychopy_experiments\media/logos/youtube.png,პროფილი,0.16,0.7,0.16,0.0,1.0,left,978.95,978.95
2025-11-06T07:43:33.210,180,facebook,C:\Users\Nadira\Documents\Experiments\visual-evoked-potentials\psychopy_experiments\media/logos/facebook.png,სტრიმი,0.16,0.7,0.16,0.0,1.0,right,863.05,863.05
2025-11-06T07:43:35.425,181,youtube,C:\Users\Nadira\Documents\Experiments\visual-evoked-potentials\psychopy_experiments\media/logos/youtube.png,ოკეანე,0.16,0.7,0.16,0.0,1.0,left,630.41,630.41
2025-11-06T07:43:37.623,182,facebook,C:\Users\Nadira\Documents\Experiments\visual-evoked-potentials\psychopy_experiments\media/logos/facebook.png,თვალთვალი,0.16,0.7,0.16,0.0,1.0,left,748.87,748.87
2025-11-06T07:43:39.837,183,youtube,C:\Users\Nadira\Documents\Experiments\visual-evoked-potentials\psychopy_experiments\media/logos/youtube.png,სტრიმი,0.16,0.7,0.16,0.0,1.0,right,745.1,745.1
2025-11-06T07:43:42.053,184,facebook,C:\Users\Nadira\Documents\Experiments\visual-evoked-potentials\psychopy_experiments\media/logos/facebook.png,მთები,0.16,0.7,0.16,0.0,1.0,left,613.75,613.75
2025-11-06T07:43:44.267,185,facebook,C:\Users\Nadira\Documents\Experiments\visual-evoked-potentials\psychopy_experiments\media/logos/facebook.png,დრო,0.16,0.7,0.16,0.0,1.0,left,912.99,912.99
2025-11-06T07:43:46.481,186,facebook,C:\Users\Nadira\Documents\Experiments\visual-evoked-potentials\psychopy_experiments\media/logos/facebook.png,თვალთვალი,0.16,0.7,0.16,0.0,1.0,left,745.99,745.99
2025-11-06T07:43:48.696,187,youtube,C:\Users\Nadira\Documents\Experiments\visual-evoked-potentials\psychopy_experiments\media/logos/youtube.png,აგური,0.16,0.7,0.16,0.0,1.0,left,762.98,762.98
2025-11-06T07:43:50.913,188,youtube,C:\Users\Nadira\Documents\Experiments\visual-evoked-potentials\psychopy_experiments\media/logos/youtube.png,ტუტორიალი,0.16,0.7,0.16,0.0,1.0,right,597.37,597.37
2025-11-06T07:43:53.109,189,facebook,C:\Users\Nadira\Documents\Experiments\visual-evoked-potentials\psychopy_experiments\media/logos/facebook.png,ამბები,0.16,0.7,0.16,0.0,1.0,left,597.61,597.61
2025-11-06T07:43:55.325,190,facebook,C:\Users\Nadira\Documents\Experiments\visual-evoked-potentials\psychopy_experiments\media/logos/facebook.png,პეპელა,0.16,0.7,0.16,0.0,1.0,left,664.66,664.66
2025-11-06T07:43:57.540,191,facebook,C:\Users\Nadira\Documents\Experiments\visual-evoked-potentials\psychopy_experiments\media/logos/facebook.png,პეპელა,0.16,0.7,0.16,0.0,1.0,left,598.08,598.08
2025-11-06T07:43:59.770,192,youtube,C:\Users\Nadira\Documents\Experiments\visual-evoked-potentials\psychopy_experiments\media/logos/youtube.png,ალგორითმი,0.16,0.7,0.16,0.0,1.0,right,677.8,677.8
2025-11-06T07:44:01.987,193,facebook,C:\Users\Nadira\Documents\Experiments\visual-evoked-potentials\psychopy_experiments\media/logos/facebook.png,პროფილი,0.16,0.7,0.16,0.0,1.0,right,831.45,831.45
2025-11-06T07:44:04.200,194,facebook,C:\Users\Nadira\Documents\Experiments\visual-evoked-potentials\psychopy_experiments\media/logos/facebook.png,პოლიტიკა,0.16,0.7,0.16,0.0,1.0,right,780.03,780.03
2025-11-06T07:44:06.414,195,facebook,C:\Users\Nadira\Documents\Experiments\visual-evoked-potentials\psychopy_experiments\media/logos/facebook.png,ჩენელი,0.16,0.7,0.16,0.0,1.0,,,
2025-11-06T07:44:08.613,196,youtube,C:\Users\Nadira\Documents\Experiments\visual-evoked-potentials\psychopy_experiments\media/logos/youtube.png,პეპელა,0.16,0.7,0.16,0.0,1.0,left,732.18,732.18
2025-11-06T07:44:10.827,197,youtube,C:\Users\Nadira\Documents\Experiments\visual-evoked-potentials\psychopy_experiments\media/logos/youtube.png,დრო,0.16,0.7,0.16,0.0,1.0,right,896.61,896.61
2025-11-06T07:44:13.042,198,youtube,C:\Users\Nadira\Documents\Experiments\visual-evoked-potentials\psychopy_experiments\media/logos/youtube.png,ჯგუფი,0.16,0.7,0.16,0.0,1.0,right,761.63,761.63
2025-11-06T07:44:15.273,199,facebook,C:\Users\Nadira\Documents\Experiments\visual-evoked-potentials\psychopy_experiments\media/logos/facebook.png,ცისარტყელა,0.16,0.7,0.16,0.0,1.0,left,597.43,597.43
2025-11-06T07:44:17.455,200,facebook,C:\Users\Nadira\Documents\Experiments\visual-evoked-potentials\psychopy_experiments\media/logos/facebook.png,სანთელი,0.16,0.7,0.16,0.0,1.0,left,610.77,610.77
2025-11-06T07:44:19.653,201,youtube,C:\Users\Nadira\Documents\Experiments\visual-evoked-potentials\psychopy_experiments\media/logos/youtube.png,სანთელი,0.16,0.7,0.16,0.0,1.0,left,649.05,649.05
2025-11-06T07:44:21.867,202,youtube,C:\Users\Nadira\Documents\Experiments\visual-evoked-potentials\psychopy_experiments\media/logos/youtube.png,ვიოლინო,0.16,0.7,0.16,0.0,1.0,left,729.05,729.05
2025-11-06T07:44:24.084,203,youtube,C:\Users\Nadira\Documents\Experiments\visual-evoked-potentials\psychopy_experiments\media/logos/youtube.png,აგური,0.16,0.7,0.16,0.0,1.0,left,613.49,613.49
2025-11-06T07:44:26.299,204,facebook,C:\Users\Nadira\Documents\Experiments\visual-evoked-potentials\psychopy_experiments\media/logos/facebook.png,ფული,0.16,0.7,0.16,0.0,1.0,right,646.03,646.03
2025-11-06T07:44:28.513,205,facebook,C:\Users\Nadira\Documents\Experiments\visual-evoked-potentials\psychopy_experiments\media/logos/facebook.png,მესიჯი,0.16,0.7,0.16,0.0,1.0,right,628.31,628.31
2025-11-06T07:44:30.727,206,youtube,C:\Users\Nadira\Documents\Experiments\visual-evoked-potentials\psychopy_experiments\media/logos/youtube.png,ბურთი,0.16,0.7,0.16,0.0,1.0,left,580.0,580.0
2025-11-06T07:44:32.959,207,facebook,C:\Users\Nadira\Documents\Experiments\visual-evoked-potentials\psychopy_experiments\media/logos/facebook.png,ინგეიჯმენთი,0.16,0.7,0.16,0.0,1.0,right,814.17,814.17
2025-11-06T07:44:35.156,208,facebook,C:\Users\Nadira\Documents\Experiments\visual-evoked-potentials\psychopy_experiments\media/logos/facebook.png,ვიდეო,0.16,0.7,0.16,0.0,1.0,right,829.34,829.34
2025-11-06T07:44:37.372,209,youtube,C:\Users\Nadira\Documents\Experiments\visual-evoked-potentials\psychopy_experiments\media/logos/youtube.png,ამბები,0.16,0.7,0.16,0.0,1.0,right,713.94,713.94
2025-11-06T07:44:39.587,210,facebook,C:\Users\Nadira\Documents\Experiments\visual-evoked-potentials\psychopy_experiments\media/logos/facebook.png,პოსტი,0.16,0.7,0.16,0.0,1.0,right,813.85,813.85
2025-11-06T07:44:41.800,211,youtube,C:\Users\Nadira\Documents\Experiments\visual-evoked-potentials\psychopy_experiments\media/logos/youtube.png,პროფილი,0.16,0.7,0.16,0.0,1.0,left,913.02,913.02
2025-11-06T07:44:44.000,212,youtube,C:\Users\Nadira\Documents\Experiments\visual-evoked-potentials\psychopy_experiments\media/logos/youtube.png,პოლიტიკა,0.16,0.7,0.16,0.0,1.0,right,813.15,813.15
2025-11-06T07:44:46.214,213,youtube,C:\Users\Nadira\Documents\Experiments\visual-evoked-potentials\psychopy_experiments\media/logos/youtube.png,სანთელი,0.16,0.7,0.16,0.0,1.0,left,662.93,662.93
2025-11-06T07:44:48.428,214,youtube,C:\Users\Nadira\Documents\Experiments\visual-evoked-potentials\psychopy_experiments\media/logos/youtube.png,თვალთვალი,0.16,0.7,0.16,0.0,1.0,,,
2025-11-06T07:44:50.626,215,facebook,C:\Users\Nadira\Documents\Experiments\visual-evoked-potentials\psychopy_experiments\media/logos/facebook.png,ავთენტურობა,0.16,0.7,0.16,0.0,1.0,,,
2025-11-06T07:44:52.839,216,youtube,C:\Users\Nadira\Documents\Experiments\visual-evoked-potentials\psychopy_experiments\media/logos/youtube.png,პეპელა,0.16,0.7,0.16,0.0,1.0,left,579.56,579.56
2025-11-06T07:44:55.057,217,facebook,C:\Users\Nadira\Documents\Experiments\visual-evoked-potentials\psychopy_experiments\media/logos/facebook.png,სანთელი,0.16,0.7,0.16,0.0,1.0,left,596.68,596.68
2025-11-06T07:44:57.271,218,facebook,C:\Users\Nadira\Documents\Experiments\visual-evoked-potentials\psychopy_experiments\media/logos/facebook.png,ინგეიჯმენთი,0.16,0.7,0.16,0.0,1.0,right,861.9,861.9
2025-11-06T07:44:59.469,219,facebook,C:\Users\Nadira\Documents\Experiments\visual-evoked-potentials\psychopy_experiments\media/logos/facebook.png,ღონისძიება,0.16,0.7,0.16,0.0,1.0,right,745.21,745.21
2025-11-06T07:45:01.683,220,facebook,C:\Users\Nadira\Documents\Experiments\visual-evoked-potentials\psychopy_experiments\media/logos/facebook.png,კავშირი,0.16,0.7,0.16,0.0,1.0,right,846.7,846.7
2025-11-06T07:45:03.898,221,facebook,C:\Users\Nadira\Documents\Experiments\visual-evoked-potentials\psychopy_experiments\media/logos/facebook.png,ინგეიჯმენთი,0.16,0.7,0.16,0.0,1.0,right,580.53,580.53
2025-11-06T07:45:06.114,222,facebook,C:\Users\Nadira\Documents\Experiments\visual-evoked-potentials\psychopy_experiments\media/logos/facebook.png,ჯგუფი,0.16,0.7,0.16,0.0,1.0,right,748.37,748.37
2025-11-06T07:45:08.327,223,facebook,C:\Users\Nadira\Documents\Experiments\visual-evoked-potentials\psychopy_experiments\media/logos/facebook.png,სანთელი,0.16,0.7,0.16,0.0,1.0,left,511.73,511.73
2025-11-06T07:45:10.558,224,youtube,C:\Users\Nadira\Documents\Experiments\visual-evoked-potentials\psychopy_experiments\media/logos/youtube.png,ქრიეთორი,0.16,0.7,0.16,0.0,1.0,right,780.97,780.97
2025-11-06T07:45:12.773,225,facebook,C:\Users\Nadira\Documents\Experiments\visual-evoked-potentials\psychopy_experiments\media/logos/facebook.png,პოსტი,0.16,0.7,0.16,0.0,1.0,right,762.8,762.8
2025-11-06T07:45:14.973,226,youtube,C:\Users\Nadira\Documents\Experiments\visual-evoked-potentials\psychopy_experiments\media/logos/youtube.png,ალგორითმი,0.16,0.7,0.16,0.0,1.0,right,580.02,580.02
2025-11-06T07:45:17.187,227,youtube,C:\Users\Nadira\Documents\Experiments\visual-evoked-potentials\psychopy_experiments\media/logos/youtube.png,ბურთი,0.16,0.7,0.16,0.0,1.0,left,532.17,532.17
2025-11-06T07:45:19.385,228,youtube,C:\Users\Nadira\Documents\Experiments\visual-evoked-potentials\psychopy_experiments\media/logos/youtube.png,სტრიმი,0.16,0.7,0.16,0.0,1.0,right,714.21,714.21
2025-11-06T07:45:21.616,229,facebook,C:\Users\Nadira\Documents\Experiments\visual-evoked-potentials\psychopy_experiments\media/logos/facebook.png,მთები,0.16,0.7,0.16,0.0,1.0,left,596.93,596.93
2025-11-06T07:45:23.832,230,youtube,C:\Users\Nadira\Documents\Experiments\visual-evoked-potentials\psychopy_experiments\media/logos/youtube.png,ვიდეო,0.16,0.7,0.16,0.0,1.0,right,612.78,612.78
2025-11-06T07:45:26.062,231,youtube,C:\Users\Nadira\Documents\Experiments\visual-evoked-potentials\psychopy_experiments\media/logos/youtube.png,საზოგადოება,0.16,0.7,0.16,0.0,1.0,right,544.91,544.91
2025-11-06T07:45:28.276,232,facebook,C:\Users\Nadira\Documents\Experiments\visual-evoked-potentials\psychopy_experiments\media/logos/facebook.png,სტრიმი,0.16,0.7,0.16,0.0,1.0,right,562.04,562.04
2025-11-06T07:45:30.475,233,facebook,C:\Users\Nadira\Documents\Experiments\visual-evoked-potentials\psychopy_experiments\media/logos/facebook.png,ჯგუფი,0.16,0.7,0.16,0.0,1.0,right,581.04,581.04
2025-11-06T07:45:32.689,234,facebook,C:\Users\Nadira\Documents\Experiments\visual-evoked-potentials\psychopy_experiments\media/logos/facebook.png,ვიდეო,0.16,0.7,0.16,0.0,1.0,,,
2025-11-06T07:45:34.904,235,facebook,C:\Users\Nadira\Documents\Experiments\visual-evoked-potentials\psychopy_experiments\media/logos/facebook.png,ფული,0.16,0.7,0.16,0.0,1.0,right,762.42,762.42
2025-11-06T07:45:37.118,236,facebook,C:\Users\Nadira\Documents\Experiments\visual-evoked-potentials\psychopy_experiments\media/logos/facebook.png,თვალთვალი,0.16,0.7,0.16,0.0,1.0,left,998.13,998.13
2025-11-06T07:45:39.335,237,facebook,C:\Users\Nadira\Documents\Experiments\visual-evoked-potentials\psychopy_experiments\media/logos/facebook.png,დრო,0.16,0.7,0.16,0.0,1.0,,,
2025-11-06T07:45:41.532,238,facebook,C:\Users\Nadira\Documents\Experiments\visual-evoked-potentials\psychopy_experiments\media/logos/facebook.png,ამბები,0.16,0.7,0.16,0.0,1.0,right,964.31,964.31
2025-11-06T07:45:43.763,239,youtube,C:\Users\Nadira\Documents\Experiments\visual-evoked-potentials\psychopy_experiments\media/logos/youtube.png,დრო,0.16,0.7,0.16,0.0,1.0,left,898.2,898.2
2025-11-06T07:45:45.980,240,facebook,C:\Users\Nadira\Documents\Experiments\visual-evoked-potentials\psychopy_experiments\media/logos/facebook.png,ჯგუფი,0.16,0.7,0.16,0.0,1.0,right,779.41,779.41
2025-11-06T07:45:48.175,241,facebook,C:\Users\Nadira\Documents\Experiments\visual-evoked-potentials\psychopy_experiments\media/logos/facebook.png,კონტენტი,0.16,0.7,0.16,0.0,1.0,right,795.64,795.64
2025-11-06T07:45:50.390,242,youtube,C:\Users\Nadira\Documents\Experiments\visual-evoked-potentials\psychopy_experiments\media/logos/youtube.png,ინგეიჯმენთი,0.16,0.7,0.16,0.0,1.0,right,579.81,579.81
2025-11-06T07:45:52.606,243,facebook,C:\Users\Nadira\Documents\Experiments\visual-evoked-potentials\psychopy_experiments\media/logos/facebook.png,ტყუილი,0.16,0.7,0.16,0.0,1.0,right,964.35,964.35
2025-11-06T07:45:54.838,244,youtube,C:\Users\Nadira\Documents\Experiments\visual-evoked-potentials\psychopy_experiments\media/logos/youtube.png,საზოგადოება,0.16,0.7,0.16,0.0,1.0,right,678.61,678.61
2025-11-06T07:45:57.051,245,youtube,C:\Users\Nadira\Documents\Experiments\visual-evoked-potentials\psychopy_experiments\media/logos/youtube.png,თვალთვალი,0.16,0.7,0.16,0.0,1.0,left,797.33,797.33
2025-11-06T07:45:59.252,246,facebook,C:\Users\Nadira\Documents\Experiments\visual-evoked-potentials\psychopy_experiments\media/logos/facebook.png,სწავლა,0.16,0.7,0.16,0.0,1.0,,,
2025-11-06T07:46:01.464,247,facebook,C:\Users\Nadira\Documents\Experiments\visual-evoked-potentials\psychopy_experiments\media/logos/facebook.png,ჩელენჯი,0.16,0.7,0.16,0.0,1.0,,,
2025-11-06T07:46:03.664,248,facebook,C:\Users\Nadira\Documents\Experiments\visual-evoked-potentials\psychopy_experiments\media/logos/facebook.png,რეაქცია,0.16,0.7,0.16,0.0,1.0,right,863.82,863.82
2025-11-06T07:46:05.895,249,youtube,C:\Users\Nadira\Documents\Experiments\visual-evoked-potentials\psychopy_experiments\media/logos/youtube.png,კომენტარები,0.16,0.7,0.16,0.0,1.0,right,728.72,728.72
2025-11-06T07:46:08.108,250,facebook,C:\Users\Nadira\Documents\Experiments\visual-evoked-potentials\psychopy_experiments\media/logos/facebook.png,ჩელენჯი,0.16,0.7,0.16,0.0,1.0,,,
2025-11-06T07:46:10.324,251,facebook,C:\Users\Nadira\Documents\Experiments\visual-evoked-potentials\psychopy_experiments\media/logos/facebook.png,ჩელენჯი,0.16,0.7,0.16,0.0,1.0,,,
2025-11-06T07:46:12.539,252,youtube,C:\Users\Nadira\Documents\Experiments\visual-evoked-potentials\psychopy_experiments\media/logos/youtube.png,ჩელენჯი,0.16,0.7,0.16,0.0,1.0,right,916.9,916.9
2025-11-06T07:46:14.753,253,facebook,C:\Users\Nadira\Documents\Experiments\visual-evoked-potentials\psychopy_experiments\media/logos/facebook.png,რეაქცია,0.16,0.7,0.16,0.0,1.0,right,780.16,780.16
2025-11-06T07:46:16.984,254,youtube,C:\Users\Nadira\Documents\Experiments\visual-evoked-potentials\psychopy_experiments\media/logos/youtube.png,ამბები,0.16,0.7,0.16,0.0,1.0,right,930.77,930.77
2025-11-06T07:46:19.200,255,youtube,C:\Users\Nadira\Documents\Experiments\visual-evoked-potentials\psychopy_experiments\media/logos/youtube.png,მთები,0.16,0.7,0.16,0.0,1.0,left,594.68,594.68
2025-11-06T07:46:21.397,256,youtube,C:\Users\Nadira\Documents\Experiments\visual-evoked-potentials\psychopy_experiments\media/logos/youtube.png,ავთენტურობა,0.16,0.7,0.16,0.0,1.0,right,729.05,729.05
2025-11-06T07:46:23.595,257,facebook,C:\Users\Nadira\Documents\Experiments\visual-evoked-potentials\psychopy_experiments\media/logos/facebook.png,ვიდეო,0.16,0.7,0.16,0.0,1.0,,,
2025-11-06T07:46:25.828,258,youtube,C:\Users\Nadira\Documents\Experiments\visual-evoked-potentials\psychopy_experiments\media/logos/youtube.png,რეაქცია,0.16,0.7,0.16,0.0,1.0,,,
2025-11-06T07:46:28.041,259,youtube,C:\Users\Nadira\Documents\Experiments\visual-evoked-potentials\psychopy_experiments\media/logos/youtube.png,პოლიტიკა,0.16,0.7,0.16,0.0,1.0,right,996.8,996.8
2025-11-06T07:46:30.240,260,facebook,C:\Users\Nadira\Documents\Experiments\visual-evoked-potentials\psychopy_experiments\media/logos/facebook.png,ოკეანე,0.16,0.7,0.16,0.0,1.0,left,663.09,663.09
2025-11-06T07:46:32.453,261,youtube,C:\Users\Nadira\Documents\Experiments\visual-evoked-potentials\psychopy_experiments\media/logos/youtube.png,პოსტი,0.16,0.7,0.16,0.0,1.0,left,796.67,796.67
2025-11-06T07:46:34.670,262,youtube,C:\Users\Nadira\Documents\Experiments\visual-evoked-potentials\psychopy_experiments\media/logos/youtube.png,პოლიტიკა,0.16,0.7,0.16,0.0,1.0,right,864.19,864.19
2025-11-06T07:46:36.884,263,facebook,C:\Users\Nadira\Documents\Experiments\visual-evoked-potentials\psychopy_experiments\media/logos/facebook.png,ალგორითმი,0.16,0.7,0.16,0.0,1.0,,,
2025-11-06T07:46:39.098,264,facebook,C:\Users\Nadira\Documents\Experiments\visual-evoked-potentials\psychopy_experiments\media/logos/facebook.png,ბურთი,0.16,0.7,0.16,0.0,1.0,left,563.72,563.72
2025-11-06T07:46:41.315,265,youtube,C:\Users\Nadira\Documents\Experiments\visual-evoked-potentials\psychopy_experiments\media/logos/youtube.png,ღონისძიება,0.16,0.7,0.16,0.0,1.0,right,576.51,576.51
2025-11-06T07:46:43.544,266,youtube,C:\Users\Nadira\Documents\Experiments\visual-evoked-potentials\psychopy_experiments\media/logos/youtube.png,ინგეიჯმენთი,0.16,0.7,0.16,0.0,1.0,right,793.8,793.8
2025-11-06T07:46:45.760,267,facebook,C:\Users\Nadira\Documents\Experiments\visual-evoked-potentials\psychopy_experiments\media/logos/facebook.png,პოსტი,0.16,0.7,0.16,0.0,1.0,right,897.49,897.49
2025-11-06T07:46:47.957,268,facebook,C:\Users\Nadira\Documents\Experiments\visual-evoked-potentials\psychopy_experiments\media/logos/facebook.png,საზოგადოება,0.16,0.7,0.16,0.0,1.0,right,642.51,642.51
2025-11-06T07:46:50.172,269,facebook,C:\Users\Nadira\Documents\Experiments\visual-evoked-potentials\psychopy_experiments\media/logos/facebook.png,აგური,0.16,0.7,0.16,0.0,1.0,left,596.78,596.78
2025-11-06T07:46:52.387,270,facebook,C:\Users\Nadira\Documents\Experiments\visual-evoked-potentials\psychopy_experiments\media/logos/facebook.png,მესიჯი,0.16,0.7,0.16,0.0,1.0,right,796.28,796.28
2025-11-06T07:46:54.601,271,youtube,C:\Users\Nadira\Documents\Experiments\visual-evoked-potentials\psychopy_experiments\media/logos/youtube.png,ჯგუფი,0.16,0.7,0.16,0.0,1.0,,,
2025-11-06T07:46:56.816,272,facebook,C:\Users\Nadira\Documents\Experiments\visual-evoked-potentials\psychopy_experiments\media/logos/facebook.png,გართობა,0.16,0.7,0.16,0.0,1.0,,,
2025-11-06T07:46:59.016,273,facebook,C:\Users\Nadira\Documents\Experiments\visual-evoked-potentials\psychopy_experiments\media/logos/facebook.png,კონტენტი,0.16,0.7,0.16,0.0,1.0,right,830.32,830.32
2025-11-06T07:47:01.246,274,youtube,C:\Users\Nadira\Documents\Experiments\visual-evoked-potentials\psychopy_experiments\media/logos/youtube.png,წიგნი,0.16,0.7,0.16,0.0,1.0,,,
2025-11-06T07:47:03.443,275,facebook,C:\Users\Nadira\Documents\Experiments\visual-evoked-potentials\psychopy_experiments\media/logos/facebook.png,ტყუილი,0.16,0.7,0.16,0.0,1.0,,,
2025-11-06T07:47:05.658,276,youtube,C:\Users\Nadira\Documents\Experiments\visual-evoked-potentials\psychopy_experiments\media/logos/youtube.png,მესიჯი,0.16,0.7,0.16,0.0,1.0,,,
2025-11-06T07:47:07.890,277,youtube,C:\Users\Nadira\Documents\Experiments\visual-evoked-potentials\psychopy_experiments\media/logos/youtube.png,სტრიმი,0.16,0.7,0.16,0.0,1.0,right,713.37,713.37
2025-11-06T07:47:10.088,278,youtube,C:\Users\Nadira\Documents\Experiments\visual-evoked-potentials\psychopy_experiments\media/logos/youtube.png,დრო,0.16,0.7,0.16,0.0,1.0,left,764.51,764.51
2025-11-06T07:47:12.303,279,facebook,C:\Users\Nadira\Documents\Experiments\visual-evoked-potentials\psychopy_experiments\media/logos/facebook.png,კონტენტი,0.16,0.7,0.16,0.0,1.0,,,
2025-11-06T07:47:14.518,280,facebook,C:\Users\Nadira\Documents\Experiments\visual-evoked-potentials\psychopy_experiments\media/logos/facebook.png,ოკეანე,0.16,0.7,0.16,0.0,1.0,left,612.08,612.08
2025-11-06T07:47:16.734,281,youtube,C:\Users\Nadira\Documents\Experiments\visual-evoked-potentials\psychopy_experiments\media/logos/youtube.png,ოკეანე,0.16,0.7,0.16,0.0,1.0,left,698.67,698.67
2025-11-06T07:47:18.963,282,youtube,C:\Users\Nadira\Documents\Experiments\visual-evoked-potentials\psychopy_experiments\media/logos/youtube.png,ავთენტურობა,0.16,0.7,0.16,0.0,1.0,right,961.55,961.55
2025-11-06T07:47:21.195,283,facebook,C:\Users\Nadira\Documents\Experiments\visual-evoked-potentials\psychopy_experiments\media/logos/facebook.png,ავთენტურობა,0.16,0.7,0.16,0.0,1.0,,,
2025-11-06T07:47:23.393,284,youtube,C:\Users\Nadira\Documents\Experiments\visual-evoked-potentials\psychopy_experiments\media/logos/youtube.png,ჩენელი,0.16,0.7,0.16,0.0,1.0,,,
2025-11-06T07:47:25.592,285,youtube,C:\Users\Nadira\Documents\Experiments\visual-evoked-potentials\psychopy_experiments\media/logos/youtube.png,ნოსტალგია,0.16,0.7,0.16,0.0,1.0,left,778.62,778.62
2025-11-06T07:47:27.806,286,youtube,C:\Users\Nadira\Documents\Experiments\visual-evoked-potentials\psychopy_experiments\media/logos/youtube.png,პოსტი,0.16,0.7,0.16,0.0,1.0,,,
2025-11-06T07:47:30.022,287,facebook,C:\Users\Nadira\Documents\Experiments\visual-evoked-potentials\psychopy_experiments\media/logos/facebook.png,ტუტორიალი,0.16,0.7,0.16,0.0,1.0,,,
2025-11-06T07:47:32.236,288,facebook,C:\Users\Nadira\Documents\Experiments\visual-evoked-potentials\psychopy_experiments\media/logos/facebook.png,პოსტი,0.16,0.7,0.16,0.0,1.0,right,545.1,545.1
2025-11-06T07:47:34.467,289,youtube,C:\Users\Nadira\Documents\Experiments\visual-evoked-potentials\psychopy_experiments\media/logos/youtube.png,ტუტორიალი,0.16,0.7,0.16,0.0,1.0,,,
2025-11-06T07:47:36.681,290,facebook,C:\Users\Nadira\Documents\Experiments\visual-evoked-potentials\psychopy_experiments\media/logos/facebook.png,ბურთი,0.16,0.7,0.16,0.0,1.0,left,764.85,764.85
2025-11-06T07:47:38.880,291,facebook,C:\Users\Nadira\Documents\Experiments\visual-evoked-potentials\psychopy_experiments\media/logos/facebook.png,კომენტარები,0.16,0.7,0.16,0.0,1.0,right,661.38,661.38
2025-11-06T07:47:41.078,292,youtube,C:\Users\Nadira\Documents\Experiments\visual-evoked-potentials\psychopy_experiments\media/logos/youtube.png,რეაქცია,0.16,0.7,0.16,0.0,1.0,,,
2025-11-06T07:47:43.291,293,youtube,C:\Users\Nadira\Documents\Experiments\visual-evoked-potentials\psychopy_experiments\media/logos/youtube.png,მთები,0.16,0.7,0.16,0.0,1.0,left,679.3,679.3
2025-11-06T07:47:45.490,294,facebook,C:\Users\Nadira\Documents\Experiments\visual-evoked-potentials\psychopy_experiments\media/logos/facebook.png,ალგორითმი,0.16,0.7,0.16,0.0,1.0,right,729.68,729.68
2025-11-06T07:47:47.690,295,youtube,C:\Users\Nadira\Documents\Experiments\visual-evoked-potentials\psychopy_experiments\media/logos/youtube.png,ღონისძიება,0.16,0.7,0.16,0.0,1.0,right,726.8,726.8
2025-11-06T07:47:49.920,296,facebook,C:\Users\Nadira\Documents\Experiments\visual-evoked-potentials\psychopy_experiments\media/logos/facebook.png,ალგორითმი,0.16,0.7,0.16,0.0,1.0,right,512.31,512.31
2025-11-06T07:47:52.135,297,youtube,C:\Users\Nadira\Documents\Experiments\visual-evoked-potentials\psychopy_experiments\media/logos/youtube.png,ნოსტალგია,0.16,0.7,0.16,0.0,1.0,left,629.45,629.45
2025-11-06T07:47:54.366,298,youtube,C:\Users\Nadira\Documents\Experiments\visual-evoked-potentials\psychopy_experiments\media/logos/youtube.png,ჩელენჯი,0.16,0.7,0.16,0.0,1.0,,,
2025-11-06T07:47:56.599,299,youtube,C:\Users\Nadira\Documents\Experiments\visual-evoked-potentials\psychopy_experiments\media/logos/youtube.png,ჩენელი,0.16,0.7,0.16,0.0,1.0,,,
2025-11-06T07:47:58.812,300,youtube,C:\Users\Nadira\Documents\Experiments\visual-evoked-potentials\psychopy_experiments\media/logos/youtube.png,მეგობრები,0.16,0.7,0.16,0.0,1.0,,,
2025-11-06T07:48:01.027,301,youtube,C:\Users\Nadira\Documents\Experiments\visual-evoked-potentials\psychopy_experiments\media/logos/youtube.png,ინგეიჯმენთი,0.16,0.7,0.16,0.0,1.0,,,
2025-11-06T07:48:03.241,302,youtube,C:\Users\Nadira\Documents\Experiments\visual-evoked-potentials\psychopy_experiments\media/logos/youtube.png,თვალთვალი,0.16,0.7,0.16,0.0,1.0,left,712.45,712.45
2025-11-06T07:48:05.457,303,facebook,C:\Users\Nadira\Documents\Experiments\visual-evoked-potentials\psychopy_experiments\media/logos/facebook.png,პოსტი,0.16,0.7,0.16,0.0,1.0,right,764.58,764.58
2025-11-06T07:48:07.655,304,facebook,C:\Users\Nadira\Documents\Experiments\visual-evoked-potentials\psychopy_experiments\media/logos/facebook.png,ვიდეო,0.16,0.7,0.16,0.0,1.0,,,
2025-11-06T07:48:09.853,305,facebook,C:\Users\Nadira\Documents\Experiments\visual-evoked-potentials\psychopy_experiments\media/logos/facebook.png,ბურთი,0.16,0.7,0.16,0.0,1.0,left,681.36,681.36
2025-11-06T07:48:12.069,306,facebook,C:\Users\Nadira\Documents\Experiments\visual-evoked-potentials\psychopy_experiments\media/logos/facebook.png,ოკეანე,0.16,0.7,0.16,0.0,1.0,left,812.87,812.87
2025-11-06T07:48:14.301,307,facebook,C:\Users\Nadira\Documents\Experiments\visual-evoked-potentials\psychopy_experiments\media/logos/facebook.png,ნოსტალგია,0.16,0.7,0.16,0.0,1.0,left,779.0,779.0
2025-11-06T07:48:16.530,308,youtube,C:\Users\Nadira\Documents\Experiments\visual-evoked-potentials\psychopy_experiments\media/logos/youtube.png,კომენტარები,0.16,0.7,0.16,0.0,1.0,right,811.3,811.3
2025-11-06T07:48:18.744,309,facebook,C:\Users\Nadira\Documents\Experiments\visual-evoked-potentials\psychopy_experiments\media/logos/facebook.png,ოკეანე,0.16,0.7,0.16,0.0,1.0,,,
2025-11-06T07:48:20.960,310,facebook,C:\Users\Nadira\Documents\Experiments\visual-evoked-potentials\psychopy_experiments\media/logos/facebook.png,კავშირი,0.16,0.7,0.16,0.0,1.0,right,647.23,647.23
2025-11-06T07:48:23.191,311,youtube,C:\Users\Nadira\Documents\Experiments\visual-evoked-potentials\psychopy_experiments\media/logos/youtube.png,აგური,0.16,0.7,0.16,0.0,1.0,left,547.61,547.61
2025-11-06T07:48:25.391,312,youtube,C:\Users\Nadira\Documents\Experiments\visual-evoked-potentials\psychopy_experiments\media/logos/youtube.png,რეაქცია,0.16,0.7,0.16,0.0,1.0,right,861.5,861.5
2025-11-06T07:48:27.620,313,facebook,C:\Users\Nadira\Documents\Experiments\visual-evoked-potentials\psychopy_experiments\media/logos/facebook.png,გართობა,0.16,0.7,0.16,0.0,1.0,right,680.64,680.64
2025-11-06T07:48:29.837,314,youtube,C:\Users\Nadira\Documents\Experiments\visual-evoked-potentials\psychopy_experiments\media/logos/youtube.png,ცისარტყელა,0.16,0.7,0.16,0.0,1.0,left,663.18,663.18
2025-11-06T07:48:32.049,315,youtube,C:\Users\Nadira\Documents\Experiments\visual-evoked-potentials\psychopy_experiments\media/logos/youtube.png,ფული,0.16,0.7,0.16,0.0,1.0,right,595.78,595.78
2025-11-06T07:48:34.264,316,facebook,C:\Users\Nadira\Documents\Experiments\visual-evoked-potentials\psychopy_experiments\media/logos/facebook.png,მეგობრები,0.16,0.7,0.16,0.0,1.0,right,897.5,897.5
2025-11-06T07:48:36.479,317,facebook,C:\Users\Nadira\Documents\Experiments\visual-evoked-potentials\psychopy_experiments\media/logos/facebook.png,პროფილი,0.16,0.7,0.16,0.0,1.0,,,
2025-11-06T07:48:38.678,318,youtube,C:\Users\Nadira\Documents\Experiments\visual-evoked-potentials\psychopy_experiments\media/logos/youtube.png,მთები,0.16,0.7,0.16,0.0,1.0,left,782.87,782.87
2025-11-06T07:48:40.909,319,facebook,C:\Users\Nadira\Documents\Experiments\visual-evoked-potentials\psychopy_experiments\media/logos/facebook.png,ღონისძიება,0.16,0.7,0.16,0.0,1.0,right,880.09,880.09
2025-11-06T07:48:43.125,320,facebook,C:\Users\Nadira\Documents\Experiments\visual-evoked-potentials\psychopy_experiments\media/logos/facebook.png,ჩენელი,0.16,0.7,0.16,0.0,1.0,,,
2025-11-06T07:48:45.323,321,facebook,C:\Users\Nadira\Documents\Experiments\visual-evoked-potentials\psychopy_experiments\media/logos/facebook.png,ფული,0.16,0.7,0.16,0.0,1.0,,,
2025-11-06T07:48:47.521,322,facebook,C:\Users\Nadira\Documents\Experiments\visual-evoked-potentials\psychopy_experiments\media/logos/facebook.png,გართობა,0.16,0.7,0.16,0.0,1.0,right,612.5,612.5
2025-11-06T07:48:49.719,323,facebook,C:\Users\Nadira\Documents\Experiments\visual-evoked-potentials\psychopy_experiments\media/logos/facebook.png,სტრიმი,0.16,0.7,0.16,0.0,1.0,,,
2025-11-06T07:48:51.933,324,youtube,C:\Users\Nadira\Documents\Experiments\visual-evoked-potentials\psychopy_experiments\media/logos/youtube.png,ვიოლინო,0.16,0.7,0.16,0.0,1.0,left,728.6,728.6
2025-11-06T07:48:54.132,325,facebook,C:\Users\Nadira\Documents\Experiments\visual-evoked-potentials\psychopy_experiments\media/logos/facebook.png,წიგნი,0.16,0.7,0.16,0.0,1.0,,,
2025-11-06T07:48:56.346,326,facebook,C:\Users\Nadira\Documents\Experiments\visual-evoked-potentials\psychopy_experiments\media/logos/facebook.png,ქრიეთორი,0.16,0.7,0.16,0.0,1.0,right,845.47,845.47
2025-11-06T07:48:58.560,327,youtube,C:\Users\Nadira\Documents\Experiments\visual-evoked-potentials\psychopy_experiments\media/logos/youtube.png,ცისარტყელა,0.16,0.7,0.16,0.0,1.0,left,628.85,628.85
2025-11-06T07:49:00.760,328,facebook,C:\Users\Nadira\Documents\Experiments\visual-evoked-potentials\psychopy_experiments\media/logos/facebook.png,გართობა,0.16,0.7,0.16,0.0,1.0,right,962.78,962.78
2025-11-06T07:49:02.974,329,youtube,C:\Users\Nadira\Documents\Experiments\visual-evoked-potentials\psychopy_experiments\media/logos/youtube.png,ჩენელი,0.16,0.7,0.16,0.0,1.0,right,829.21,829.21
2025-11-06T07:49:05.187,330,facebook,C:\Users\Nadira\Documents\Experiments\visual-evoked-potentials\psychopy_experiments\media/logos/facebook.png,ბალიში,0.16,0.7,0.16,0.0,1.0,left,515.05,515.05
2025-11-06T07:49:07.386,331,youtube,C:\Users\Nadira\Documents\Experiments\visual-evoked-potentials\psychopy_experiments\media/logos/youtube.png,ტუტორიალი,0.16,0.7,0.16,0.0,1.0,right,665.08,665.08
2025-11-06T07:49:09.601,332,youtube,C:\Users\Nadira\Documents\Experiments\visual-evoked-potentials\psychopy_experiments\media/logos/youtube.png,კონტენტი,0.16,0.7,0.16,0.0,1.0,right,779.84,779.84
2025-11-06T07:49:11.798,333,youtube,C:\Users\Nadira\Documents\Experiments\visual-evoked-potentials\psychopy_experiments\media/logos/youtube.png,ტუტორიალი,0.16,0.7,0.16,0.0,1.0,right,629.53,629.53
2025-11-06T07:49:14.014,334,youtube,C:\Users\Nadira\Documents\Experiments\visual-evoked-potentials\psychopy_experiments\media/logos/youtube.png,ნოსტალგია,0.16,0.7,0.16,0.0,1.0,left,647.33,647.33
2025-11-06T07:49:16.230,335,facebook,C:\Users\Nadira\Documents\Experiments\visual-evoked-potentials\psychopy_experiments\media/logos/facebook.png,კომენტარები,0.16,0.7,0.16,0.0,1.0,,,
2025-11-06T07:49:18.443,336,youtube,C:\Users\Nadira\Documents\Experiments\visual-evoked-potentials\psychopy_experiments\media/logos/youtube.png,პოლიტიკა,0.16,0.7,0.16,0.0,1.0,right,697.57,697.57
2025-11-06T07:49:20.641,337,facebook,C:\Users\Nadira\Documents\Experiments\visual-evoked-potentials\psychopy_experiments\media/logos/facebook.png,პროფილი,0.16,0.7,0.16,0.0,1.0,,,
2025-11-06T07:49:22.855,338,facebook,C:\Users\Nadira\Documents\Experiments\visual-evoked-potentials\psychopy_experiments\media/logos/facebook.png,ვიდეო,0.16,0.7,0.16,0.0,1.0,right,997.02,997.02
2025-11-06T07:49:25.072,339,youtube,C:\Users\Nadira\Documents\Experiments\visual-evoked-potentials\psychopy_experiments\media/logos/youtube.png,კონტენტი,0.16,0.7,0.16,0.0,1.0,right,646.28,646.28
2025-11-06T07:49:27.302,340,facebook,C:\Users\Nadira\Documents\Experiments\visual-evoked-potentials\psychopy_experiments\media/logos/facebook.png,ღონისძიება,0.16,0.7,0.16,0.0,1.0,right,613.98,613.98
2025-11-06T07:49:29.517,341,facebook,C:\Users\Nadira\Documents\Experiments\visual-evoked-potentials\psychopy_experiments\media/logos/facebook.png,წიგნი,0.16,0.7,0.16,0.0,1.0,,,
2025-11-06T07:49:31.732,342,youtube,C:\Users\Nadira\Documents\Experiments\visual-evoked-potentials\psychopy_experiments\media/logos/youtube.png,ნოსტალგია,0.16,0.7,0.16,0.0,1.0,left,595.46,595.46
2025-11-06T07:49:34.013,343,facebook,C:\Users\Nadira\Documents\Experiments\visual-evoked-potentials\psychopy_experiments\media/logos/facebook.png,მეგობრები,0.16,0.7,0.16,0.0,1.0,right,703.44,703.44
2025-11-06T07:49:36.229,344,youtube,C:\Users\Nadira\Documents\Experiments\visual-evoked-potentials\psychopy_experiments\media/logos/youtube.png,საზოგადოება,0.16,0.7,0.16,0.0,1.0,left,862.57,862.57
2025-11-06T07:49:38.459,345,youtube,C:\Users\Nadira\Documents\Experiments\visual-evoked-potentials\psychopy_experiments\media/logos/youtube.png,ბურთი,0.16,0.7,0.16,0.0,1.0,left,829.15,829.15
2025-11-06T07:49:40.674,346,facebook,C:\Users\Nadira\Documents\Experiments\visual-evoked-potentials\psychopy_experiments\media/logos/facebook.png,ვიოლინო,0.16,0.7,0.16,0.0,1.0,left,594.34,594.34
2025-11-06T07:49:42.906,347,facebook,C:\Users\Nadira\Documents\Experiments\visual-evoked-potentials\psychopy_experiments\media/logos/facebook.png,წიგნი,0.16,0.7,0.16,0.0,1.0,left,780.15,780.15
2025-11-06T07:49:45.138,348,youtube,C:\Users\Nadira\Documents\Experiments\visual-evoked-potentials\psychopy_experiments\media/logos/youtube.png,მეგობრები,0.16,0.7,0.16,0.0,1.0,right,830.01,830.01
2025-11-06T07:49:47.352,349,youtube,C:\Users\Nadira\Documents\Experiments\visual-evoked-potentials\psychopy_experiments\media/logos/youtube.png,ფული,0.16,0.7,0.16,0.0,1.0,right,647.32,647.32
2025-11-06T07:49:49.583,350,facebook,C:\Users\Nadira\Documents\Experiments\visual-evoked-potentials\psychopy_experiments\media/logos/facebook.png,საზოგადოება,0.16,0.7,0.16,0.0,1.0,right,677.17,677.17
2025-11-06T07:49:51.782,351,youtube,C:\Users\Nadira\Documents\Experiments\visual-evoked-potentials\psychopy_experiments\media/logos/youtube.png,ღონისძიება,0.16,0.7,0.16,0.0,1.0,left,945.24,945.24
2025-11-06T07:49:53.995,352,facebook,C:\Users\Nadira\Documents\Experiments\visual-evoked-potentials\psychopy_experiments\media/logos/facebook.png,ტუტორიალი,0.16,0.7,0.16,0.0,1.0,,,
2025-11-06T07:49:56.193,353,facebook,C:\Users\Nadira\Documents\Experiments\visual-evoked-potentials\psychopy_experiments\media/logos/facebook.png,ცისარტყელა,0.16,0.7,0.16,0.0,1.0,left,595.53,595.53
2025-11-06T07:49:58.409,354,youtube,C:\Users\Nadira\Documents\Experiments\visual-evoked-potentials\psychopy_experiments\media/logos/youtube.png,ავთენტურობა,0.16,0.7,0.16,0.0,1.0,,,
2025-11-06T07:50:00.639,355,facebook,C:\Users\Nadira\Documents\Experiments\visual-evoked-potentials\psychopy_experiments\media/logos/facebook.png,პოლიტიკა,0.16,0.7,0.16,0.0,1.0,right,665.63,665.63
2025-11-06T07:50:02.853,356,facebook,C:\Users\Nadira\Documents\Experiments\visual-evoked-potentials\psychopy_experiments\media/logos/facebook.png,ვიოლინო,0.16,0.7,0.16,0.0,1.0,left,796.8,796.8
2025-11-06T07:50:05.085,357,youtube,C:\Users\Nadira\Documents\Experiments\visual-evoked-potentials\psychopy_experiments\media/logos/youtube.png,ამბები,0.16,0.7,0.16,0.0,1.0,right,946.66,946.66
2025-11-06T07:50:07.300,358,facebook,C:\Users\Nadira\Documents\Experiments\visual-evoked-potentials\psychopy_experiments\media/logos/facebook.png,მეგობრები,0.16,0.7,0.16,0.0,1.0,,,
2025-11-06T07:50:09.515,359,youtube,C:\Users\Nadira\Documents\Experiments\visual-evoked-potentials\psychopy_experiments\media/logos/youtube.png,ბურთი,0.16,0.7,0.16,0.0,1.0,left,864.35,864.35
2025-11-06T07:50:11.730,360,facebook,C:\Users\Nadira\Documents\Experiments\visual-evoked-potentials\psychopy_experiments\media/logos/facebook.png,ნოსტალგია,0.16,0.7,0.16,0.0,1.0,left,781.62,781.62
2025-11-06T07:50:13.946,361,youtube,C:\Users\Nadira\Documents\Experiments\visual-evoked-potentials\psychopy_experiments\media/logos/youtube.png,ალგორითმი,0.16,0.7,0.16,0.0,1.0,right,779.5,779.5
2025-11-06T07:50:16.159,362,youtube,C:\Users\Nadira\Documents\Experiments\visual-evoked-potentials\psychopy_experiments\media/logos/youtube.png,ტყუილი,0.16,0.7,0.16,0.0,1.0,,,
2025-11-06T07:50:18.359,363,youtube,C:\Users\Nadira\Documents\Experiments\visual-evoked-potentials\psychopy_experiments\media/logos/youtube.png,ამბები,0.16,0.7,0.16,0.0,1.0,,,
2025-11-06T07:50:20.539,364,youtube,C:\Users\Nadira\Documents\Experiments\visual-evoked-potentials\psychopy_experiments\media/logos/youtube.png,ვიდეო,0.16,0.7,0.16,0.0,1.0,right,796.23,796.23
2025-11-06T07:50:22.753,365,facebook,C:\Users\Nadira\Documents\Experiments\visual-evoked-potentials\psychopy_experiments\media/logos/facebook.png,ავთენტურობა,0.16,0.7,0.16,0.0,1.0,right,848.47,848.47
2025-11-06T07:50:24.970,366,facebook,C:\Users\Nadira\Documents\Experiments\visual-evoked-potentials\psychopy_experiments\media/logos/facebook.png,ქრიეთორი,0.16,0.7,0.16,0.0,1.0,right,797.68,797.68
2025-11-06T07:50:27.199,367,youtube,C:\Users\Nadira\Documents\Experiments\visual-evoked-potentials\psychopy_experiments\media/logos/youtube.png,წიგნი,0.16,0.7,0.16,0.0,1.0,,,
2025-11-06T07:50:29.414,368,youtube,C:\Users\Nadira\Documents\Experiments\visual-evoked-potentials\psychopy_experiments\media/logos/youtube.png,აგური,0.16,0.7,0.16,0.0,1.0,left,613.17,613.17
2025-11-06T07:50:31.646,369,facebook,C:\Users\Nadira\Documents\Experiments\visual-evoked-potentials\psychopy_experiments\media/logos/facebook.png,ჩენელი,0.16,0.7,0.16,0.0,1.0,right,796.99,796.99
2025-11-06T07:50:33.862,370,facebook,C:\Users\Nadira\Documents\Experiments\visual-evoked-potentials\psychopy_experiments\media/logos/facebook.png,ღონისძიება,0.16,0.7,0.16,0.0,1.0,,,
2025-11-06T07:50:36.076,371,facebook,C:\Users\Nadira\Documents\Experiments\visual-evoked-potentials\psychopy_experiments\media/logos/facebook.png,სანთელი,0.16,0.7,0.16,0.0,1.0,left,613.84,613.84
2025-11-06T07:50:38.307,372,youtube,C:\Users\Nadira\Documents\Experiments\visual-evoked-potentials\psychopy_experiments\media/logos/youtube.png,ოკეანე,0.16,0.7,0.16,0.0,1.0,left,612.74,612.74
2025-11-06T07:50:40.521,373,facebook,C:\Users\Nadira\Documents\Experiments\visual-evoked-potentials\psychopy_experiments\media/logos/facebook.png,ამბები,0.16,0.7,0.16,0.0,1.0,,,
2025-11-06T07:50:42.738,374,youtube,C:\Users\Nadira\Documents\Experiments\visual-evoked-potentials\psychopy_experiments\media/logos/youtube.png,კავშირი,0.16,0.7,0.16,0.0,1.0,,,
2025-11-06T07:50:44.952,375,youtube,C:\Users\Nadira\Documents\Experiments\visual-evoked-potentials\psychopy_experiments\media/logos/youtube.png,რეაქცია,0.16,0.7,0.16,0.0,1.0,right,831.14,831.14
2025-11-06T07:50:47.149,376,facebook,C:\Users\Nadira\Documents\Experiments\visual-evoked-potentials\psychopy_experiments\media/logos/facebook.png,წიგნი,0.16,0.7,0.16,0.0,1.0,left,795.6,795.6
2025-11-06T07:50:49.365,377,youtube,C:\Users\Nadira\Documents\Experiments\visual-evoked-potentials\psychopy_experiments\media/logos/youtube.png,მესიჯი,0.16,0.7,0.16,0.0,1.0,,,
2025-11-06T07:50:51.579,378,facebook,C:\Users\Nadira\Documents\Experiments\visual-evoked-potentials\psychopy_experiments\media/logos/facebook.png,ტუტორიალი,0.16,0.7,0.16,0.0,1.0,,,
2025-11-06T07:50:53.794,379,youtube,C:\Users\Nadira\Documents\Experiments\visual-evoked-potentials\psychopy_experiments\media/logos/youtube.png,ჩელენჯი,0.16,0.7,0.16,0.0,1.0,right,677.08,677.08
2025-11-06T07:50:56.008,380,facebook,C:\Users\Nadira\Documents\Experiments\visual-evoked-potentials\psychopy_experiments\media/logos/facebook.png,ვიოლინო,0.16,0.7,0.16,0.0,1.0,left,897.44,897.44
2025-11-06T07:50:58.222,381,youtube,C:\Users\Nadira\Documents\Experiments\visual-evoked-potentials\psychopy_experiments\media/logos/youtube.png,მთები,0.16,0.7,0.16,0.0,1.0,left,829.51,829.51
2025-11-06T07:51:00.440,382,youtube,C:\Users\Nadira\Documents\Experiments\visual-evoked-potentials\psychopy_experiments\media/logos/youtube.png,ფული,0.16,0.7,0.16,0.0,1.0,right,712.48,712.48
2025-11-06T07:51:02.669,383,facebook,C:\Users\Nadira\Documents\Experiments\visual-evoked-potentials\psychopy_experiments\media/logos/facebook.png,გართობა,0.16,0.7,0.16,0.0,1.0,right,963.68,963.68
2025-11-06T07:51:04.868,384,facebook,C:\Users\Nadira\Documents\Experiments\visual-evoked-potentials\psychopy_experiments\media/logos/facebook.png,სწავლა,0.16,0.7,0.16,0.0,1.0,,,
2025-11-06T07:51:07.098,385,facebook,C:\Users\Nadira\Documents\Experiments\visual-evoked-potentials\psychopy_experiments\media/logos/facebook.png,კავშირი,0.16,0.7,0.16,0.0,1.0,right,812.18,812.18
2025-11-06T07:51:09.313,386,youtube,C:\Users\Nadira\Documents\Experiments\visual-evoked-potentials\psychopy_experiments\media/logos/youtube.png,ქრიეთორი,0.16,0.7,0.16,0.0,1.0,,,
2025-11-06T07:51:11.546,387,youtube,C:\Users\Nadira\Documents\Experiments\visual-evoked-potentials\psychopy_experiments\media/logos/youtube.png,ალგორითმი,0.16,0.7,0.16,0.0,1.0,right,613.06,613.06
2025-11-06T07:51:13.777,388,youtube,C:\Users\Nadira\Documents\Experiments\visual-evoked-potentials\psychopy_experiments\media/logos/youtube.png,მესიჯი,0.16,0.7,0.16,0.0,1.0,,,
2025-11-06T07:51:16.008,389,facebook,C:\Users\Nadira\Documents\Experiments\visual-evoked-potentials\psychopy_experiments\media/logos/facebook.png,რეაქცია,0.16,0.7,0.16,0.0,1.0,right,579.52,579.52
2025-11-06T07:51:18.224,390,youtube,C:\Users\Nadira\Documents\Experiments\visual-evoked-potentials\psychopy_experiments\media/logos/youtube.png,ტყუილი,0.16,0.7,0.16,0.0,1.0,,,
2025-11-06T07:51:20.437,391,facebook,C:\Users\Nadira\Documents\Experiments\visual-evoked-potentials\psychopy_experiments\media/logos/facebook.png,პეპელა,0.16,0.7,0.16,0.0,1.0,left,564.18,564.18
2025-11-06T07:51:22.653,392,youtube,C:\Users\Nadira\Documents\Experiments\visual-evoked-potentials\psychopy_experiments\media/logos/youtube.png,სტრიმი,0.16,0.7,0.16,0.0,1.0,right,813.8,813.8
2025-11-06T07:51:24.866,393,youtube,C:\Users\Nadira\Documents\Experiments\visual-evoked-potentials\psychopy_experiments\media/logos/youtube.png,სტრიმი,0.16,0.7,0.16,0.0,1.0,right,531.98,531.98
2025-11-06T07:51:27.082,394,facebook,C:\Users\Nadira\Documents\Experiments\visual-evoked-potentials\psychopy_experiments\media/logos/facebook.png,რეალობა,0.16,0.7,0.16,0.0,1.0,left,831.2,831.2
2025-11-06T07:51:29.296,395,youtube,C:\Users\Nadira\Documents\Experiments\visual-evoked-potentials\psychopy_experiments\media/logos/youtube.png,ფული,0.16,0.7,0.16,0.0,1.0,right,679.25,679.25
2025-11-06T07:51:31.511,396,youtube,C:\Users\Nadira\Documents\Experiments\visual-evoked-potentials\psychopy_experiments\media/logos/youtube.png,ქრიეთორი,0.16,0.7,0.16,0.0,1.0,right,764.52,764.52
2025-11-06T07:51:33.727,397,youtube,C:\Users\Nadira\Documents\Experiments\visual-evoked-potentials\psychopy_experiments\media/logos/youtube.png,ღონისძიება,0.16,0.7,0.16,0.0,1.0,right,544.94,544.94
2025-11-06T07:51:35.940,398,youtube,C:\Users\Nadira\Documents\Experiments\visual-evoked-potentials\psychopy_experiments\media/logos/youtube.png,ვიოლინო,0.16,0.7,0.16,0.0,1.0,left,630.1,630.1
2025-11-06T07:51:38.139,399,youtube,C:\Users\Nadira\Documents\Experiments\visual-evoked-potentials\psychopy_experiments\media/logos/youtube.png,ქრიეთორი,0.16,0.7,0.16,0.0,1.0,right,746.37,746.37
